"ID","BIDS","block","response","key_pressed","rt_ms","condition","trial_number","current_letter","previous_letter"
"01","sub-control001","block1",1,2,895,3,1,2,5
"01","sub-control001","block1",1,2,1457,1,2,7,2
"01","sub-control001","block1",1,2,1547,2,3,7,7
"01","sub-control001","block1",1,2,1292,2,4,13,7
"01","sub-control001","block1",1,2,990,2,5,13,13
"01","sub-control001","block1",1,2,1283,3,6,3,13
"01","sub-control001","block1",3,1,2000,4,7,7,3
"01","sub-control001","block1",1,2,790,5,8,6,7
"01","sub-control001","block1",1,2,984,5,9,14,6
"01","sub-control001","block1",1,2,1110,4,10,13,14
"01","sub-control001","block1",1,2,1035,5,11,4,13
"01","sub-control001","block1",1,2,959,2,12,8,4
"01","sub-control001","block1",1,2,967,5,13,12,8
"01","sub-control001","block1",1,2,1911,5,14,12,12
"01","sub-control001","block1",1,2,1516,4,15,1,12
"01","sub-control001","block1",1,2,1442,4,16,3,1
"01","sub-control001","block1",2,1,1808,4,17,4,3
"01","sub-control001","block1",3,1,2000,2,18,10,4
"01","sub-control001","block1",1,2,1000,4,19,11,10
"01","sub-control001","block1",3,1,2000,4,20,4,11
"01","sub-control001","block2",1,2,1144,4,1,7,4
"01","sub-control001","block2",1,2,962,4,2,5,7
"01","sub-control001","block2",1,2,929,4,3,14,5
"01","sub-control001","block2",1,1,1655,1,4,5,14
"01","sub-control001","block2",3,1,2000,5,5,11,5
"01","sub-control001","block2",2,1,1512,3,6,14,11
"01","sub-control001","block2",1,2,1503,5,7,3,14
"01","sub-control001","block2",1,2,1053,5,8,4,3
"01","sub-control001","block2",1,2,1564,2,9,5,4
"01","sub-control001","block2",1,2,1247,3,10,10,5
"01","sub-control001","block2",1,2,1064,5,11,2,10
"01","sub-control001","block2",1,2,1365,2,12,7,2
"01","sub-control001","block2",1,1,1084,1,13,2,7
"01","sub-control001","block2",1,1,1811,1,14,7,2
"01","sub-control001","block2",1,2,906,2,15,14,7
"01","sub-control001","block2",1,2,1062,5,16,4,14
"01","sub-control001","block2",1,2,1033,2,17,4,4
"01","sub-control001","block2",2,1,1193,4,18,14,4
"01","sub-control001","block2",1,2,934,3,19,9,14
"01","sub-control001","block2",1,2,811,2,20,13,9
"01","sub-control001","block3",1,2,1468,5,1,12,13
"01","sub-control001","block3",1,2,827,4,2,9,12
"01","sub-control001","block3",1,2,805,3,3,3,9
"01","sub-control001","block3",1,2,1073,3,4,3,3
"01","sub-control001","block3",1,2,1185,2,5,7,3
"01","sub-control001","block3",1,2,1148,3,6,14,7
"01","sub-control001","block3",1,2,1090,5,7,13,14
"01","sub-control001","block3",1,1,1810,1,8,14,13
"01","sub-control001","block3",3,1,2000,1,9,13,14
"01","sub-control001","block3",1,2,881,5,10,5,13
"01","sub-control001","block3",1,2,850,3,11,5,5
"01","sub-control001","block3",1,2,1437,2,12,14,5
"01","sub-control001","block3",1,2,1471,2,13,13,14
"01","sub-control001","block3",1,2,779,4,14,1,13
"01","sub-control001","block3",1,2,882,4,15,9,1
"01","sub-control001","block3",1,1,1410,1,16,1,9
"01","sub-control001","block3",1,2,847,3,17,8,1
"01","sub-control001","block3",1,1,1465,1,18,1,8
"01","sub-control001","block3",1,2,647,4,19,5,1
"01","sub-control001","block3",1,2,529,5,20,7,5
"01","sub-control001","block4",1,2,1934,2,1,15,7
"01","sub-control001","block4",1,2,750,4,2,3,15
"01","sub-control001","block4",1,1,740,1,3,15,3
"01","sub-control001","block4",1,2,825,4,4,1,15
"01","sub-control001","block4",1,1,752,1,5,15,1
"01","sub-control001","block4",1,2,618,2,6,8,15
"01","sub-control001","block4",1,2,850,2,7,9,8
"01","sub-control001","block4",1,2,981,5,8,7,9
"01","sub-control001","block4",1,2,1137,5,9,4,7
"01","sub-control001","block4",1,2,1005,5,10,3,4
"01","sub-control001","block4",1,1,1125,1,11,4,3
"01","sub-control001","block4",1,2,980,4,12,9,4
"01","sub-control001","block4",1,2,1075,2,13,11,9
"01","sub-control001","block4",1,2,884,4,14,14,11
"01","sub-control001","block4",1,2,1494,3,15,2,14
"01","sub-control001","block4",1,2,1053,3,16,13,2
"01","sub-control001","block4",1,2,1097,3,17,4,13
"01","sub-control001","block4",1,2,912,3,18,1,4
"01","sub-control001","block4",1,2,850,4,19,14,1
"01","sub-control001","block4",2,1,1705,4,20,4,14
"01","sub-control001","training",3,1,2000,1,1,15,0
"01","sub-control001","training",3,1,2000,3,2,10,15
"01","sub-control001","training",3,1,2000,3,3,12,10
"01","sub-control001","training",3,1,2000,1,4,10,12
"01","sub-control001","training",2,1,752,2,5,10,10
"01","sub-control001","training",1,2,1995,4,6,14,10
"01","sub-control001","training",1,2,1056,3,7,9,14
"01","sub-control001","training",1,2,823,5,8,8,9
"01","sub-control001","training",2,1,745,3,9,10,8
"01","sub-control001","training",3,1,2000,3,10,13,10
"01","sub-control001","training",2,1,1347,5,11,15,13
"01","sub-control001","training",1,2,902,4,12,3,15
"01","sub-control001","training",1,2,667,2,13,12,3
"01","sub-control001","training",1,1,1340,1,14,3,12
"01","sub-control001","training",3,1,2000,4,15,7,3
"01","sub-control001","training",2,2,1784,1,16,3,7
"01","sub-control001","training",1,2,1631,3,17,5,3
"01","sub-control001","training",1,2,1363,3,18,12,5
"01","sub-control001","training",1,2,994,2,19,14,12
"01","sub-control001","training",1,2,1556,5,20,5,14
"02","sub-control002","block1",1,2,917,1,1,6,4
"02","sub-control002","block1",1,2,1850,4,2,5,6
"02","sub-control002","block1",1,2,1537,4,3,11,5
"02","sub-control002","block1",1,1,1495,1,4,5,11
"02","sub-control002","block1",1,1,1548,1,5,11,5
"02","sub-control002","block1",1,2,797,5,6,12,11
"02","sub-control002","block1",2,1,1141,4,7,12,12
"02","sub-control002","block1",3,1,2000,3,8,10,12
"02","sub-control002","block1",1,2,1408,5,9,2,10
"02","sub-control002","block1",1,2,858,3,10,6,2
"02","sub-control002","block1",1,2,1352,5,11,11,6
"02","sub-control002","block1",3,1,2000,2,12,12,11
"02","sub-control002","block1",1,2,1119,3,13,5,12
"02","sub-control002","block1",1,2,871,5,14,4,5
"02","sub-control002","block1",1,2,829,4,15,13,4
"02","sub-control002","block1",1,2,1308,2,16,10,13
"02","sub-control002","block1",1,2,892,2,17,8,10
"02","sub-control002","block1",2,1,1150,2,18,13,8
"02","sub-control002","block1",1,2,1246,2,19,12,13
"02","sub-control002","block1",1,2,1176,4,20,2,12
"02","sub-control002","block2",1,2,1092,4,1,6,2
"02","sub-control002","block2",2,1,1326,4,2,6,6
"02","sub-control002","block2",1,2,1846,5,3,10,6
"02","sub-control002","block2",1,2,1334,5,4,15,10
"02","sub-control002","block2",1,1,1022,1,5,10,15
"02","sub-control002","block2",1,2,867,4,6,9,10
"02","sub-control002","block2",1,2,729,5,7,6,9
"02","sub-control002","block2",1,2,784,5,8,14,6
"02","sub-control002","block2",1,2,798,3,9,2,14
"02","sub-control002","block2",1,2,854,4,10,7,2
"02","sub-control002","block2",2,1,1343,3,11,14,7
"02","sub-control002","block2",1,2,718,2,12,3,14
"02","sub-control002","block2",1,2,801,5,13,9,3
"02","sub-control002","block2",1,2,1413,5,14,2,9
"02","sub-control002","block2",1,2,1011,2,15,12,2
"02","sub-control002","block2",2,1,847,2,16,9,12
"02","sub-control002","block2",1,2,954,2,17,11,9
"02","sub-control002","block2",1,2,825,3,18,10,11
"02","sub-control002","block2",1,1,1051,1,19,11,10
"02","sub-control002","block2",1,2,1406,2,20,6,11
"02","sub-control002","block3",1,2,1085,2,1,2,6
"02","sub-control002","block3",1,2,861,2,2,11,2
"02","sub-control002","block3",1,2,730,5,3,6,11
"02","sub-control002","block3",1,2,633,5,4,3,6
"02","sub-control002","block3",1,2,683,3,5,15,3
"02","sub-control002","block3",1,2,1154,2,6,9,15
"02","sub-control002","block3",1,2,1284,4,7,11,9
"02","sub-control002","block3",1,1,868,1,8,9,11
"02","sub-control002","block3",1,2,857,4,9,8,9
"02","sub-control002","block3",1,1,846,1,10,9,8
"02","sub-control002","block3",1,1,987,1,11,8,9
"02","sub-control002","block3",1,2,705,3,12,12,8
"02","sub-control002","block3",1,1,837,1,13,8,12
"02","sub-control002","block3",1,2,882,4,14,2,8
"02","sub-control002","block3",1,1,783,1,15,8,2
"02","sub-control002","block3",1,1,1476,1,16,2,8
"02","sub-control002","block3",1,2,611,5,17,1,2
"02","sub-control002","block3",1,2,778,4,18,3,1
"02","sub-control002","block3",1,2,950,2,19,13,3
"02","sub-control002","block3",1,2,900,5,20,6,13
"02","sub-control002","block4",1,2,1084,5,1,8,6
"02","sub-control002","block4",2,1,860,1,2,8,8
"02","sub-control002","block4",1,2,1046,5,3,1,8
"02","sub-control002","block4",1,2,1317,2,4,9,1
"02","sub-control002","block4",1,2,651,5,5,12,9
"02","sub-control002","block4",1,2,758,5,6,6,12
"02","sub-control002","block4",1,2,744,4,7,5,6
"02","sub-control002","block4",1,2,652,5,8,11,5
"02","sub-control002","block4",1,2,629,4,9,4,11
"02","sub-control002","block4",1,2,598,3,10,13,4
"02","sub-control002","block4",1,1,701,1,11,4,13
"02","sub-control002","block4",1,1,1438,1,12,13,4
"02","sub-control002","block4",1,1,1087,1,13,4,13
"02","sub-control002","block4",1,1,1362,1,14,13,4
"02","sub-control002","block4",1,2,647,2,15,15,13
"02","sub-control002","block4",1,2,930,2,16,4,15
"02","sub-control002","block4",1,2,643,5,17,3,4
"02","sub-control002","block4",1,2,620,5,18,14,3
"02","sub-control002","block4",1,2,876,5,19,4,14
"02","sub-control002","block4",1,2,860,3,20,9,4
"02","sub-control002","training",3,1,2000,3,1,7,0
"02","sub-control002","training",1,2,1532,4,2,13,7
"02","sub-control002","training",1,2,827,3,3,14,13
"02","sub-control002","training",1,2,614,5,4,3,14
"02","sub-control002","training",1,1,973,1,5,14,3
"02","sub-control002","training",2,1,748,3,6,14,14
"02","sub-control002","training",1,2,756,4,7,4,14
"02","sub-control002","training",1,2,776,4,8,12,4
"02","sub-control002","training",2,1,891,3,9,12,12
"02","sub-control002","training",1,2,766,5,10,9,12
"02","sub-control002","training",1,2,941,2,11,1,9
"02","sub-control002","training",1,2,716,3,12,15,1
"02","sub-control002","training",2,1,887,4,13,13,15
"02","sub-control002","training",2,1,692,4,14,13,13
"02","sub-control002","training",1,2,986,5,15,3,13
"02","sub-control002","training",1,2,731,3,16,11,3
"02","sub-control002","training",1,2,1574,4,17,5,11
"02","sub-control002","training",2,1,825,5,18,14,5
"02","sub-control002","training",2,1,1018,5,19,11,14
"02","sub-control002","training",1,2,1247,4,20,4,11
"03","sub-control003","block1",1,2,693,3,1,15,9
"03","sub-control003","block1",1,2,837,1,2,2,15
"03","sub-control003","block1",1,2,1155,4,3,14,2
"03","sub-control003","block1",1,2,852,3,4,14,14
"03","sub-control003","block1",1,1,1054,1,5,14,14
"03","sub-control003","block1",1,2,861,3,6,11,14
"03","sub-control003","block1",1,2,936,4,7,5,11
"03","sub-control003","block1",1,2,1173,3,8,10,5
"03","sub-control003","block1",1,2,943,4,9,1,10
"03","sub-control003","block1",1,2,932,3,10,6,1
"03","sub-control003","block1",1,1,695,1,11,1,6
"03","sub-control003","block1",1,2,1107,3,12,13,1
"03","sub-control003","block1",2,2,1411,1,13,1,13
"03","sub-control003","block1",3,1,2000,3,14,8,1
"03","sub-control003","block1",1,2,1938,3,15,7,8
"03","sub-control003","block1",1,1,1039,1,16,8,7
"03","sub-control003","block1",1,2,891,3,17,4,8
"03","sub-control003","block1",1,2,1356,2,18,5,4
"03","sub-control003","block1",1,2,914,2,19,15,5
"03","sub-control003","block1",1,2,636,2,20,11,15
"03","sub-control003","block2",1,2,1341,3,1,8,11
"03","sub-control003","block2",1,2,729,3,2,14,8
"03","sub-control003","block2",1,1,923,1,3,8,14
"03","sub-control003","block2",1,2,846,5,4,5,8
"03","sub-control003","block2",1,2,848,4,5,14,5
"03","sub-control003","block2",1,2,742,5,6,2,14
"03","sub-control003","block2",1,1,656,1,7,14,2
"03","sub-control003","block2",1,2,590,4,8,7,14
"03","sub-control003","block2",1,2,462,2,9,4,7
"03","sub-control003","block2",1,1,441,1,10,7,4
"03","sub-control003","block2",1,2,630,3,11,13,7
"03","sub-control003","block2",1,2,554,2,12,9,13
"03","sub-control003","block2",1,1,649,1,13,13,9
"03","sub-control003","block2",1,2,727,3,14,2,13
"03","sub-control003","block2",1,2,721,2,15,3,2
"03","sub-control003","block2",1,2,575,4,16,7,3
"03","sub-control003","block2",1,1,395,1,17,3,7
"03","sub-control003","block2",1,2,723,4,18,14,3
"03","sub-control003","block2",1,2,690,2,19,4,14
"03","sub-control003","block2",1,2,1009,5,20,4,4
"03","sub-control003","block3",1,2,581,4,1,3,4
"03","sub-control003","block3",1,2,701,3,2,5,3
"03","sub-control003","block3",2,1,982,5,3,12,5
"03","sub-control003","block3",1,1,1018,1,4,5,12
"03","sub-control003","block3",1,2,1729,2,5,4,5
"03","sub-control003","block3",2,1,1826,5,6,9,4
"03","sub-control003","block3",1,1,1024,1,7,4,9
"03","sub-control003","block3",1,1,934,1,8,9,4
"03","sub-control003","block3",1,2,870,5,9,7,9
"03","sub-control003","block3",1,2,660,3,10,8,7
"03","sub-control003","block3",1,1,431,1,11,7,8
"03","sub-control003","block3",1,2,884,4,12,9,7
"03","sub-control003","block3",1,1,667,1,13,7,9
"03","sub-control003","block3",1,2,585,4,14,14,7
"03","sub-control003","block3",1,1,528,1,15,7,14
"03","sub-control003","block3",1,2,510,3,16,6,7
"03","sub-control003","block3",1,2,1735,5,17,2,6
"03","sub-control003","block3",1,2,859,3,18,13,2
"03","sub-control003","block3",1,2,845,4,19,3,13
"03","sub-control003","block3",1,2,1260,3,20,3,3
"03","sub-control003","block4",3,1,2000,5,1,9,3
"03","sub-control003","block4",1,2,1002,2,2,8,9
"03","sub-control003","block4",1,1,925,1,3,9,8
"03","sub-control003","block4",1,2,1329,4,4,6,9
"03","sub-control003","block4",1,2,1273,4,5,13,6
"03","sub-control003","block4",1,2,1181,4,6,12,13
"03","sub-control003","block4",3,1,2000,2,7,8,12
"03","sub-control003","block4",1,2,801,3,8,7,8
"03","sub-control003","block4",1,2,588,3,9,13,7
"03","sub-control003","block4",1,2,628,5,10,5,13
"03","sub-control003","block4",1,2,566,5,11,11,5
"03","sub-control003","block4",1,2,932,5,12,12,11
"03","sub-control003","block4",1,2,728,4,13,1,12
"03","sub-control003","block4",1,1,463,1,14,12,1
"03","sub-control003","block4",1,1,1105,1,15,1,12
"03","sub-control003","block4",1,2,1240,5,16,8,1
"03","sub-control003","block4",1,2,988,4,17,15,8
"03","sub-control003","block4",1,2,766,2,18,13,15
"03","sub-control003","block4",1,1,901,1,19,15,13
"03","sub-control003","block4",1,2,975,3,20,8,15
"03","sub-control003","training",1,2,628,1,1,13,0
"03","sub-control003","training",3,1,2000,5,2,7,13
"03","sub-control003","training",1,1,775,1,3,13,7
"03","sub-control003","training",1,2,860,4,4,2,13
"03","sub-control003","training",1,1,1236,1,5,13,2
"03","sub-control003","training",2,1,1116,3,6,13,13
"03","sub-control003","training",1,2,1608,3,7,4,13
"03","sub-control003","training",1,2,756,5,8,12,4
"03","sub-control003","training",1,2,960,4,9,11,12
"03","sub-control003","training",3,1,2000,2,10,3,11
"03","sub-control003","training",1,2,1445,4,11,15,3
"03","sub-control003","training",1,2,888,5,12,4,15
"03","sub-control003","training",1,1,563,1,13,15,4
"03","sub-control003","training",1,2,1317,3,14,8,15
"03","sub-control003","training",1,2,1758,2,15,12,8
"03","sub-control003","training",1,2,1155,5,16,5,12
"03","sub-control003","training",1,2,743,3,17,3,5
"03","sub-control003","training",1,2,835,5,18,9,3
"03","sub-control003","training",1,1,739,1,19,3,9
"03","sub-control003","training",2,2,1088,1,20,9,3
"07","sub-control007","block1",1,2,1568,5,1,11,5
"07","sub-control007","block1",1,2,1057,5,2,4,11
"07","sub-control007","block1",1,2,1128,4,3,7,4
"07","sub-control007","block1",1,2,893,3,4,1,7
"07","sub-control007","block1",1,1,843,1,5,7,1
"07","sub-control007","block1",1,2,1852,2,6,9,7
"07","sub-control007","block1",1,2,1610,4,7,8,9
"07","sub-control007","block1",1,2,1472,2,8,2,8
"07","sub-control007","block1",1,1,643,1,9,8,2
"07","sub-control007","block1",1,2,1064,3,10,3,8
"07","sub-control007","block1",1,2,1039,3,11,2,3
"07","sub-control007","block1",1,1,1184,1,12,3,2
"07","sub-control007","block1",1,2,1901,2,13,10,3
"07","sub-control007","block1",1,2,1306,3,14,6,10
"07","sub-control007","block1",1,2,1075,3,15,11,6
"07","sub-control007","block1",1,2,1215,2,16,1,11
"07","sub-control007","block1",1,1,828,1,17,11,1
"07","sub-control007","block1",1,2,1338,5,18,9,11
"07","sub-control007","block1",1,2,1895,4,19,14,9
"07","sub-control007","block1",1,2,1165,2,20,1,14
"07","sub-control007","block2",1,2,962,4,1,7,1
"07","sub-control007","block2",1,2,601,5,2,15,7
"07","sub-control007","block2",1,2,986,2,3,6,15
"07","sub-control007","block2",1,2,924,3,4,5,6
"07","sub-control007","block2",1,2,1051,5,5,9,5
"07","sub-control007","block2",1,2,1150,5,6,10,9
"07","sub-control007","block2",1,1,733,1,7,9,10
"07","sub-control007","block2",1,2,832,2,8,3,9
"07","sub-control007","block2",1,2,1410,4,9,7,3
"07","sub-control007","block2",1,2,1072,4,10,15,7
"07","sub-control007","block2",1,2,1835,4,11,3,15
"07","sub-control007","block2",1,2,1124,4,12,13,3
"07","sub-control007","block2",1,2,1305,2,13,7,13
"07","sub-control007","block2",1,1,775,1,14,13,7
"07","sub-control007","block2",1,2,870,4,15,3,13
"07","sub-control007","block2",1,2,1052,3,16,12,3
"07","sub-control007","block2",1,1,730,1,17,3,12
"07","sub-control007","block2",1,2,768,4,18,1,3
"07","sub-control007","block2",1,2,1153,2,19,13,1
"07","sub-control007","block2",1,2,1270,5,20,4,13
"07","sub-control007","block3",1,2,1475,2,1,14,4
"07","sub-control007","block3",1,2,653,2,2,6,14
"07","sub-control007","block3",1,2,731,5,3,8,6
"07","sub-control007","block3",1,2,1595,4,4,12,8
"07","sub-control007","block3",1,2,1261,5,5,10,12
"07","sub-control007","block3",1,2,931,4,6,15,10
"07","sub-control007","block3",1,2,1084,3,7,4,15
"07","sub-control007","block3",1,1,1074,1,8,15,4
"07","sub-control007","block3",1,2,823,4,9,3,15
"07","sub-control007","block3",1,2,1093,3,10,14,3
"07","sub-control007","block3",1,2,1226,3,11,2,14
"07","sub-control007","block3",1,1,636,1,12,14,2
"07","sub-control007","block3",1,2,840,4,13,11,14
"07","sub-control007","block3",1,2,886,3,14,4,11
"07","sub-control007","block3",1,1,839,1,15,11,4
"07","sub-control007","block3",1,1,888,1,16,4,11
"07","sub-control007","block3",1,1,852,1,17,11,4
"07","sub-control007","block3",1,2,1639,4,18,13,11
"07","sub-control007","block3",1,2,1456,4,19,13,13
"07","sub-control007","block3",3,1,2000,2,20,6,13
"07","sub-control007","block4",1,2,1538,1,1,3,6
"07","sub-control007","block4",1,2,839,2,2,14,3
"07","sub-control007","block4",1,2,1629,5,3,10,14
"07","sub-control007","block4",1,1,661,1,4,14,10
"07","sub-control007","block4",1,2,1458,3,5,8,14
"07","sub-control007","block4",1,1,642,1,6,14,8
"07","sub-control007","block4",1,2,1431,4,7,3,14
"07","sub-control007","block4",1,2,1555,4,8,15,3
"07","sub-control007","block4",1,2,1411,4,9,13,15
"07","sub-control007","block4",1,2,1083,3,10,4,13
"07","sub-control007","block4",1,2,1327,4,11,15,4
"07","sub-control007","block4",1,2,1576,5,12,1,15
"07","sub-control007","block4",1,2,1037,2,13,8,1
"07","sub-control007","block4",1,1,783,1,14,1,8
"07","sub-control007","block4",1,2,809,2,15,1,1
"07","sub-control007","block4",1,2,1566,5,16,14,1
"07","sub-control007","block4",1,2,1857,5,17,8,14
"07","sub-control007","block4",3,1,2000,2,18,15,8
"07","sub-control007","block4",1,1,1226,1,19,8,15
"07","sub-control007","block4",1,2,962,3,20,2,8
"07","sub-control007","training",3,1,2000,5,1,13,0
"07","sub-control007","training",1,2,1829,5,2,3,13
"07","sub-control007","training",1,1,1044,1,3,13,3
"07","sub-control007","training",1,2,972,3,4,1,13
"07","sub-control007","training",1,1,1102,1,5,13,1
"07","sub-control007","training",1,2,1138,4,6,5,13
"07","sub-control007","training",1,2,946,5,7,7,5
"07","sub-control007","training",1,1,736,1,8,5,7
"07","sub-control007","training",1,2,1057,2,9,14,5
"07","sub-control007","training",1,2,1895,4,10,7,14
"07","sub-control007","training",1,2,1044,2,11,4,7
"07","sub-control007","training",1,2,865,4,12,5,4
"07","sub-control007","training",1,2,551,4,13,2,5
"07","sub-control007","training",1,2,1158,2,14,4,2
"07","sub-control007","training",1,2,1317,4,15,8,4
"07","sub-control007","training",1,1,989,1,16,4,8
"07","sub-control007","training",1,2,987,4,17,11,4
"07","sub-control007","training",2,2,1157,1,18,4,11
"07","sub-control007","training",1,2,1507,2,19,2,4
"07","sub-control007","training",1,2,1281,3,20,5,2
"09","sub-control009","block1",1,2,1478,4,1,9,10
"09","sub-control009","block1",1,2,1523,4,2,9,9
"09","sub-control009","block1",1,2,1309,2,3,11,9
"09","sub-control009","block1",1,2,1266,5,4,10,11
"09","sub-control009","block1",1,2,865,4,5,7,10
"09","sub-control009","block1",1,2,669,4,6,12,7
"09","sub-control009","block1",1,2,560,3,7,5,12
"09","sub-control009","block1",1,2,538,2,8,14,5
"09","sub-control009","block1",1,2,798,5,9,14,14
"09","sub-control009","block1",1,2,1996,3,10,8,14
"09","sub-control009","block1",1,2,1573,5,11,11,8
"09","sub-control009","block1",1,2,1866,4,12,15,11
"09","sub-control009","block1",3,1,2000,1,13,11,15
"09","sub-control009","block1",3,1,2000,4,14,10,11
"09","sub-control009","block1",1,2,1661,3,15,8,10
"09","sub-control009","block1",1,2,1965,2,16,8,8
"09","sub-control009","block1",1,2,1630,2,17,14,8
"09","sub-control009","block1",1,2,1212,5,18,15,14
"09","sub-control009","block1",1,1,1352,1,19,14,15
"09","sub-control009","block1",1,1,1798,1,20,15,14
"09","sub-control009","block2",3,1,2000,3,1,4,15
"09","sub-control009","block2",3,1,2000,5,2,8,4
"09","sub-control009","block2",3,1,2000,2,3,2,8
"09","sub-control009","block2",1,2,1153,3,4,7,2
"09","sub-control009","block2",1,2,1659,2,5,5,7
"09","sub-control009","block2",1,1,1748,1,6,7,5
"09","sub-control009","block2",3,1,2000,1,7,5,7
"09","sub-control009","block2",1,2,1202,2,8,15,5
"09","sub-control009","block2",1,1,1671,1,9,5,15
"09","sub-control009","block2",1,2,1653,3,10,2,5
"09","sub-control009","block2",1,2,1108,5,11,2,2
"09","sub-control009","block2",1,1,1243,1,12,2,2
"09","sub-control009","block2",1,2,1694,4,13,3,2
"09","sub-control009","block2",3,1,2000,4,14,4,3
"09","sub-control009","block2",1,1,1057,1,15,3,4
"09","sub-control009","block2",1,2,879,3,16,12,3
"09","sub-control009","block2",1,2,1012,4,17,7,12
"09","sub-control009","block2",1,1,1082,1,18,12,7
"09","sub-control009","block2",1,2,1649,5,19,4,12
"09","sub-control009","block2",1,2,1976,2,20,14,4
"09","sub-control009","block3",1,2,1057,2,1,5,14
"09","sub-control009","block3",1,2,1620,3,2,15,5
"09","sub-control009","block3",1,2,816,3,3,4,15
"09","sub-control009","block3",1,1,868,1,4,15,4
"09","sub-control009","block3",1,2,1062,3,5,2,15
"09","sub-control009","block3",1,2,912,2,6,13,2
"09","sub-control009","block3",1,2,1234,4,7,4,13
"09","sub-control009","block3",1,1,784,1,8,13,4
"09","sub-control009","block3",1,2,759,2,9,5,13
"09","sub-control009","block3",1,1,812,1,10,13,5
"09","sub-control009","block3",1,2,786,2,11,2,13
"09","sub-control009","block3",1,2,762,3,12,11,2
"09","sub-control009","block3",1,2,827,4,13,15,11
"09","sub-control009","block3",1,2,788,2,14,14,15
"09","sub-control009","block3",1,2,650,5,15,2,14
"09","sub-control009","block3",1,2,604,2,16,9,2
"09","sub-control009","block3",1,1,1299,1,17,2,9
"09","sub-control009","block3",1,2,1843,4,18,6,2
"09","sub-control009","block3",1,2,1755,3,19,3,6
"09","sub-control009","block3",1,2,1569,3,20,13,3
"09","sub-control009","block4",3,1,2000,3,1,1,13
"09","sub-control009","block4",1,2,824,2,2,15,1
"09","sub-control009","block4",1,1,747,1,3,1,15
"09","sub-control009","block4",1,1,1268,1,4,15,1
"09","sub-control009","block4",1,2,814,3,5,8,15
"09","sub-control009","block4",1,2,879,2,6,7,8
"09","sub-control009","block4",1,1,1051,1,7,8,7
"09","sub-control009","block4",1,2,1271,4,8,13,8
"09","sub-control009","block4",1,2,1041,2,9,4,13
"09","sub-control009","block4",1,2,1071,4,10,9,4
"09","sub-control009","block4",1,2,630,3,11,7,9
"09","sub-control009","block4",1,2,622,4,12,5,7
"09","sub-control009","block4",1,2,1270,2,13,5,5
"09","sub-control009","block4",3,1,2000,3,14,7,5
"09","sub-control009","block4",1,2,1417,2,15,2,7
"09","sub-control009","block4",1,2,1000,3,16,2,2
"09","sub-control009","block4",1,2,1525,2,17,3,2
"09","sub-control009","block4",1,2,1049,5,18,15,3
"09","sub-control009","block4",1,2,979,4,19,12,15
"09","sub-control009","block4",1,2,1114,5,20,4,12
"09","sub-control009","training",3,1,2000,3,1,2,0
"09","sub-control009","training",3,1,2000,5,2,14,2
"09","sub-control009","training",3,1,2000,5,3,9,14
"09","sub-control009","training",1,2,1234,2,4,7,9
"09","sub-control009","training",1,2,814,5,5,4,7
"09","sub-control009","training",1,2,725,2,6,15,4
"09","sub-control009","training",1,2,629,2,7,9,15
"09","sub-control009","training",1,2,819,3,8,7,9
"09","sub-control009","training",1,2,570,5,9,15,7
"09","sub-control009","training",1,2,467,5,10,14,15
"09","sub-control009","training",1,2,447,2,11,1,14
"09","sub-control009","training",1,2,642,2,12,10,1
"09","sub-control009","training",1,2,386,5,13,12,10
"09","sub-control009","training",1,2,773,3,14,12,12
"09","sub-control009","training",1,2,864,4,15,15,12
"09","sub-control009","training",1,2,921,3,16,4,15
"09","sub-control009","training",1,2,735,2,17,6,4
"09","sub-control009","training",1,1,1279,1,18,4,6
"09","sub-control009","training",3,1,2000,5,19,11,4
"09","sub-control009","training",1,2,1346,5,20,10,11
"11","sub-control011","block1",3,1,2000,2,1,14,8
"11","sub-control011","block1",1,2,680,3,2,13,14
"11","sub-control011","block1",1,2,628,3,3,1,13
"11","sub-control011","block1",1,2,720,3,4,3,1
"11","sub-control011","block1",1,2,649,2,5,7,3
"11","sub-control011","block1",1,2,687,5,6,5,7
"11","sub-control011","block1",2,1,1030,2,7,14,5
"11","sub-control011","block1",1,2,1140,5,8,14,14
"11","sub-control011","block1",1,2,1135,3,9,1,14
"11","sub-control011","block1",1,1,755,1,10,14,1
"11","sub-control011","block1",2,1,1579,4,11,14,14
"11","sub-control011","block1",2,2,1068,1,12,14,14
"11","sub-control011","block1",1,2,847,5,13,11,14
"11","sub-control011","block1",1,2,1080,4,14,5,11
"11","sub-control011","block1",1,2,1243,4,15,3,5
"11","sub-control011","block1",1,1,933,1,16,5,3
"11","sub-control011","block1",1,2,683,5,17,4,5
"11","sub-control011","block1",1,2,1685,4,18,4,4
"11","sub-control011","block1",1,2,804,3,19,9,4
"11","sub-control011","block1",1,1,640,1,20,4,9
"11","sub-control011","block2",1,2,1532,3,1,13,4
"11","sub-control011","block2",1,2,843,5,2,1,13
"11","sub-control011","block2",1,1,774,1,3,13,1
"11","sub-control011","block2",1,2,673,3,4,7,13
"11","sub-control011","block2",1,2,1106,5,5,7,7
"11","sub-control011","block2",2,2,816,1,6,7,7
"11","sub-control011","block2",1,2,688,5,7,2,7
"11","sub-control011","block2",1,2,581,2,8,3,2
"11","sub-control011","block2",1,2,700,3,9,1,3
"11","sub-control011","block2",1,2,572,2,10,8,1
"11","sub-control011","block2",1,2,988,5,11,5,8
"11","sub-control011","block2",2,1,859,3,12,2,5
"11","sub-control011","block2",1,2,951,3,13,3,2
"11","sub-control011","block2",1,2,574,3,14,11,3
"11","sub-control011","block2",1,2,704,5,15,10,11
"11","sub-control011","block2",1,2,1034,5,16,9,10
"11","sub-control011","block2",1,2,1795,2,17,11,9
"11","sub-control011","block2",1,2,1021,3,18,11,11
"11","sub-control011","block2",1,2,603,3,19,6,11
"11","sub-control011","block2",1,2,700,2,20,14,6
"11","sub-control011","block3",1,2,800,1,1,3,14
"11","sub-control011","block3",1,2,317,2,2,12,3
"11","sub-control011","block3",1,2,439,5,3,13,12
"11","sub-control011","block3",1,2,473,2,4,5,13
"11","sub-control011","block3",1,2,442,4,5,4,5
"11","sub-control011","block3",1,2,603,2,6,6,4
"11","sub-control011","block3",1,2,765,3,7,10,6
"11","sub-control011","block3",2,1,605,4,8,4,10
"11","sub-control011","block3",1,2,673,3,9,14,4
"11","sub-control011","block3",1,2,559,5,10,9,14
"11","sub-control011","block3",1,2,641,2,11,1,9
"11","sub-control011","block3",1,2,793,4,12,8,1
"11","sub-control011","block3",1,1,491,1,13,1,8
"11","sub-control011","block3",1,2,1113,4,14,4,1
"11","sub-control011","block3",1,2,1468,3,15,6,4
"11","sub-control011","block3",1,2,1447,4,16,10,6
"11","sub-control011","block3",1,2,800,2,17,9,10
"11","sub-control011","block3",1,2,735,4,18,5,9
"11","sub-control011","block3",1,1,769,1,19,9,5
"11","sub-control011","block3",1,2,905,3,20,10,9
"11","sub-control011","block4",1,2,1374,2,1,14,10
"11","sub-control011","block4",1,2,588,4,2,2,14
"11","sub-control011","block4",1,2,651,5,3,9,2
"11","sub-control011","block4",1,2,528,5,4,1,9
"11","sub-control011","block4",1,2,935,3,5,14,1
"11","sub-control011","block4",1,2,565,2,6,7,14
"11","sub-control011","block4",1,2,579,2,7,7,7
"11","sub-control011","block4",1,2,676,4,8,8,7
"11","sub-control011","block4",1,2,501,4,9,2,8
"11","sub-control011","block4",1,2,562,2,10,4,2
"11","sub-control011","block4",1,2,985,4,11,14,4
"11","sub-control011","block4",1,1,897,1,12,4,14
"11","sub-control011","block4",2,1,805,4,13,9,4
"11","sub-control011","block4",3,1,2000,1,14,4,9
"11","sub-control011","block4",2,2,1026,1,15,9,4
"11","sub-control011","block4",1,1,918,1,16,4,9
"11","sub-control011","block4",1,2,1296,3,17,1,4
"11","sub-control011","block4",3,1,2000,5,18,14,1
"11","sub-control011","block4",1,2,832,3,19,7,14
"11","sub-control011","block4",1,2,483,3,20,8,7
"11","sub-control011","training",3,1,2000,2,1,14,0
"11","sub-control011","training",1,2,1894,5,2,11,14
"11","sub-control011","training",1,2,152,2,3,7,11
"11","sub-control011","training",3,1,2000,3,4,3,7
"11","sub-control011","training",1,2,939,4,5,1,3
"11","sub-control011","training",1,2,768,5,6,9,1
"11","sub-control011","training",2,2,938,1,7,1,9
"11","sub-control011","training",2,2,1219,1,8,9,1
"11","sub-control011","training",1,2,922,4,9,7,9
"11","sub-control011","training",2,1,1138,2,10,1,7
"11","sub-control011","training",3,1,2000,3,11,14,1
"11","sub-control011","training",3,1,2000,1,12,1,14
"11","sub-control011","training",2,1,1249,2,13,8,1
"11","sub-control011","training",1,2,1097,5,14,7,8
"11","sub-control011","training",2,1,816,2,15,9,7
"11","sub-control011","training",1,2,700,5,16,6,9
"11","sub-control011","training",1,1,925,1,17,9,6
"11","sub-control011","training",2,1,832,4,18,1,9
"11","sub-control011","training",1,2,848,3,19,12,1
"11","sub-control011","training",1,2,1269,2,20,8,12
"13","sub-control013","block1",1,2,1929,4,1,7,7
"13","sub-control013","block1",1,2,814,3,2,8,7
"13","sub-control013","block1",1,2,1094,4,3,6,8
"13","sub-control013","block1",1,2,730,3,4,15,6
"13","sub-control013","block1",1,1,666,1,5,6,15
"13","sub-control013","block1",1,2,597,4,6,2,6
"13","sub-control013","block1",1,2,616,5,7,14,2
"13","sub-control013","block1",1,2,623,2,8,15,14
"13","sub-control013","block1",1,2,688,4,9,12,15
"13","sub-control013","block1",1,2,1745,3,10,12,12
"13","sub-control013","block1",1,1,552,1,11,12,12
"13","sub-control013","block1",1,2,587,2,12,1,12
"13","sub-control013","block1",1,2,660,4,13,5,1
"13","sub-control013","block1",1,2,576,3,14,7,5
"13","sub-control013","block1",1,2,510,3,15,10,7
"13","sub-control013","block1",1,2,471,4,16,10,10
"13","sub-control013","block1",1,1,377,1,17,10,10
"13","sub-control013","block1",1,2,597,4,18,11,10
"13","sub-control013","block1",1,2,587,4,19,1,11
"13","sub-control013","block1",1,1,815,1,20,11,1
"13","sub-control013","block2",1,2,1157,4,1,11,11
"13","sub-control013","block2",1,2,495,3,2,12,11
"13","sub-control013","block2",1,2,702,4,3,7,12
"13","sub-control013","block2",1,2,348,2,4,8,7
"13","sub-control013","block2",1,2,497,3,5,10,8
"13","sub-control013","block2",2,2,405,1,6,8,10
"13","sub-control013","block2",1,2,974,5,7,2,8
"13","sub-control013","block2",1,2,717,5,8,4,2
"13","sub-control013","block2",1,2,650,5,9,6,4
"13","sub-control013","block2",1,2,630,3,10,9,6
"13","sub-control013","block2",1,2,884,2,11,9,9
"13","sub-control013","block2",1,2,684,3,12,2,9
"13","sub-control013","block2",1,2,1223,4,13,5,2
"13","sub-control013","block2",1,2,1055,5,14,7,5
"13","sub-control013","block2",1,2,479,4,15,15,7
"13","sub-control013","block2",1,2,446,2,16,12,15
"13","sub-control013","block2",1,1,780,1,17,15,12
"13","sub-control013","block2",1,2,484,4,18,9,15
"13","sub-control013","block2",1,2,559,4,19,8,9
"13","sub-control013","block2",1,2,412,5,20,5,8
"13","sub-control013","block3",1,2,677,2,1,7,5
"13","sub-control013","block3",1,2,506,1,2,12,7
"13","sub-control013","block3",1,2,624,2,3,13,12
"13","sub-control013","block3",1,2,677,5,4,2,13
"13","sub-control013","block3",1,2,407,4,5,10,2
"13","sub-control013","block3",1,2,385,4,6,10,10
"13","sub-control013","block3",1,2,624,5,7,13,10
"13","sub-control013","block3",1,2,460,5,8,4,13
"13","sub-control013","block3",1,2,697,2,9,14,4
"13","sub-control013","block3",1,2,509,4,10,2,14
"13","sub-control013","block3",1,2,644,3,11,7,2
"13","sub-control013","block3",2,2,370,1,12,2,7
"13","sub-control013","block3",1,2,953,5,13,10,2
"13","sub-control013","block3",1,2,796,2,14,1,10
"13","sub-control013","block3",1,1,629,1,15,10,1
"13","sub-control013","block3",1,2,640,2,16,8,10
"13","sub-control013","block3",1,2,674,3,17,15,8
"13","sub-control013","block3",1,2,429,3,18,5,15
"13","sub-control013","block3",1,2,416,4,19,10,5
"13","sub-control013","block3",1,2,1676,3,20,1,10
"13","sub-control013","block4",1,2,1521,4,1,7,1
"13","sub-control013","block4",1,2,636,4,2,8,7
"13","sub-control013","block4",1,1,642,1,3,7,8
"13","sub-control013","block4",1,2,457,4,4,1,7
"13","sub-control013","block4",1,2,971,3,5,8,1
"13","sub-control013","block4",1,2,1129,4,6,3,8
"13","sub-control013","block4",1,2,950,4,7,11,3
"13","sub-control013","block4",1,2,566,5,8,12,11
"13","sub-control013","block4",1,2,612,2,9,10,12
"13","sub-control013","block4",1,2,628,2,10,5,10
"13","sub-control013","block4",1,2,723,5,11,13,5
"13","sub-control013","block4",1,2,611,5,12,3,13
"13","sub-control013","block4",1,2,520,2,13,4,3
"13","sub-control013","block4",1,2,649,2,14,8,4
"13","sub-control013","block4",1,2,593,3,15,11,8
"13","sub-control013","block4",1,2,679,3,16,13,11
"13","sub-control013","block4",1,1,589,1,17,11,13
"13","sub-control013","block4",1,2,668,3,18,2,11
"13","sub-control013","block4",1,2,633,2,19,2,2
"13","sub-control013","block4",1,2,551,2,20,3,2
"13","sub-control013","training",1,2,1531,2,1,11,0
"13","sub-control013","training",1,2,916,3,2,14,11
"13","sub-control013","training",1,2,643,5,3,2,14
"13","sub-control013","training",1,2,589,3,4,9,2
"13","sub-control013","training",1,2,692,3,5,14,9
"13","sub-control013","training",1,2,645,3,6,13,14
"13","sub-control013","training",1,2,460,3,7,1,13
"13","sub-control013","training",1,2,432,5,8,12,1
"13","sub-control013","training",1,2,470,3,9,15,12
"13","sub-control013","training",1,2,629,5,10,7,15
"13","sub-control013","training",1,2,494,2,11,14,7
"13","sub-control013","training",1,2,491,2,12,15,14
"13","sub-control013","training",1,2,331,5,13,5,15
"13","sub-control013","training",1,2,455,2,14,8,5
"13","sub-control013","training",1,2,635,3,15,14,8
"13","sub-control013","training",1,2,375,2,16,5,14
"13","sub-control013","training",1,2,384,2,17,11,5
"13","sub-control013","training",2,2,290,1,18,5,11
"13","sub-control013","training",2,2,601,1,19,11,5
"13","sub-control013","training",1,2,818,5,20,7,11
"15","sub-control015","block1",2,1,1341,4,1,8,9
"15","sub-control015","block1",2,1,381,4,2,4,8
"15","sub-control015","block1",1,2,1414,3,3,1,4
"15","sub-control015","block1",3,1,2000,3,4,10,1
"15","sub-control015","block1",3,1,2000,1,5,1,10
"15","sub-control015","block1",1,1,208,1,6,10,1
"15","sub-control015","block1",1,2,311,3,7,3,10
"15","sub-control015","block1",1,2,346,2,8,1,3
"15","sub-control015","block1",3,1,2000,5,9,10,1
"15","sub-control015","block1",1,2,476,4,10,12,10
"15","sub-control015","block1",1,2,357,4,11,6,12
"15","sub-control015","block1",3,1,2000,5,12,6,6
"15","sub-control015","block1",3,1,2000,3,13,5,6
"15","sub-control015","block1",3,1,2000,1,14,6,5
"15","sub-control015","block1",1,2,490,5,15,6,6
"15","sub-control015","block1",3,1,2000,2,16,3,6
"15","sub-control015","block1",1,2,560,3,17,13,3
"15","sub-control015","block1",2,1,421,3,18,10,13
"15","sub-control015","block1",1,1,1682,1,19,13,10
"15","sub-control015","block1",2,1,585,3,20,14,13
"15","sub-control015","block2",1,2,1544,4,1,3,14
"15","sub-control015","block2",1,2,1880,1,2,7,3
"15","sub-control015","block2",1,2,1029,2,3,7,7
"15","sub-control015","block2",2,1,766,4,4,10,7
"15","sub-control015","block2",2,1,735,3,5,6,10
"15","sub-control015","block2",2,1,1269,2,6,13,6
"15","sub-control015","block2",1,2,916,3,7,8,13
"15","sub-control015","block2",2,2,1448,1,8,13,8
"15","sub-control015","block2",2,1,901,3,9,12,13
"15","sub-control015","block2",1,2,749,3,10,2,12
"15","sub-control015","block2",2,1,832,3,11,3,2
"15","sub-control015","block2",2,1,982,3,12,1,3
"15","sub-control015","block2",2,1,878,3,13,5,1
"15","sub-control015","block2",2,1,1316,4,14,13,5
"15","sub-control015","block2",1,2,1573,3,15,15,13
"15","sub-control015","block2",2,1,693,2,16,5,15
"15","sub-control015","block2",1,2,1216,4,17,8,5
"15","sub-control015","block2",2,1,698,3,18,10,8
"15","sub-control015","block2",1,2,1597,3,19,9,10
"15","sub-control015","block2",2,1,905,2,20,6,9
"15","sub-control015","block3",3,1,2000,4,1,13,6
"15","sub-control015","block3",2,1,1533,5,2,9,13
"15","sub-control015","block3",2,1,831,3,3,12,9
"15","sub-control015","block3",2,1,593,3,4,10,12
"15","sub-control015","block3",2,1,853,2,5,6,10
"15","sub-control015","block3",1,2,1772,2,6,2,6
"15","sub-control015","block3",2,1,1211,2,7,13,2
"15","sub-control015","block3",1,2,624,4,8,15,13
"15","sub-control015","block3",1,1,809,1,9,13,15
"15","sub-control015","block3",2,1,805,5,10,1,13
"15","sub-control015","block3",1,1,847,1,11,13,1
"15","sub-control015","block3",1,2,1485,2,12,15,13
"15","sub-control015","block3",2,1,1114,2,13,3,15
"15","sub-control015","block3",2,1,900,3,14,5,3
"15","sub-control015","block3",1,2,1191,5,15,15,5
"15","sub-control015","block3",2,1,488,2,16,9,15
"15","sub-control015","block3",2,2,1223,1,17,15,9
"15","sub-control015","block3",2,1,802,5,18,5,15
"15","sub-control015","block3",1,1,690,1,19,15,5
"15","sub-control015","block3",2,1,613,2,20,4,15
"15","sub-control015","block4",2,1,1311,5,1,1,4
"15","sub-control015","block4",2,1,793,3,2,6,1
"15","sub-control015","block4",1,1,691,1,3,1,6
"15","sub-control015","block4",2,1,763,5,4,3,1
"15","sub-control015","block4",2,1,1294,4,5,15,3
"15","sub-control015","block4",1,2,1139,3,6,11,15
"15","sub-control015","block4",1,1,1380,1,7,15,11
"15","sub-control015","block4",2,1,807,4,8,1,15
"15","sub-control015","block4",2,1,952,5,9,3,1
"15","sub-control015","block4",2,1,1099,5,10,12,3
"15","sub-control015","block4",2,1,899,4,11,5,12
"15","sub-control015","block4",2,1,1079,5,12,13,5
"15","sub-control015","block4",1,2,1310,4,13,2,13
"15","sub-control015","block4",1,1,747,1,14,13,2
"15","sub-control015","block4",2,1,627,5,15,10,13
"15","sub-control015","block4",2,1,921,5,16,11,10
"15","sub-control015","block4",2,1,1143,5,17,3,11
"15","sub-control015","block4",2,1,904,2,18,5,3
"15","sub-control015","block4",1,2,950,3,19,9,5
"15","sub-control015","block4",1,2,1312,4,20,15,9
"15","sub-control015","training",3,1,2000,2,1,5,0
"15","sub-control015","training",3,1,2000,1,2,11,5
"15","sub-control015","training",3,1,2000,2,3,1,11
"15","sub-control015","training",3,1,2000,4,4,14,1
"15","sub-control015","training",3,1,2000,2,5,11,14
"15","sub-control015","training",3,1,2000,2,6,12,11
"15","sub-control015","training",3,1,2000,1,7,11,12
"15","sub-control015","training",3,1,2000,4,8,10,11
"15","sub-control015","training",3,1,2000,4,9,7,10
"15","sub-control015","training",3,1,2000,1,10,10,7
"15","sub-control015","training",3,1,2000,1,11,7,10
"15","sub-control015","training",3,1,2000,5,12,5,7
"15","sub-control015","training",3,1,2000,1,13,7,5
"15","sub-control015","training",3,1,2000,5,14,4,7
"15","sub-control015","training",3,1,2000,5,15,6,4
"15","sub-control015","training",3,1,2000,4,16,1,6
"15","sub-control015","training",3,1,2000,5,17,2,1
"15","sub-control015","training",3,1,2000,1,18,1,2
"15","sub-control015","training",3,1,2000,4,19,4,1
"15","sub-control015","training",3,1,2000,4,20,9,4
"17","sub-control017","block1",1,2,1764,3,1,4,12
"17","sub-control017","block1",1,2,915,4,2,3,4
"17","sub-control017","block1",1,1,774,1,3,4,3
"17","sub-control017","block1",2,2,759,1,4,3,4
"17","sub-control017","block1",1,1,1146,1,5,4,3
"17","sub-control017","block1",1,2,1207,3,6,15,4
"17","sub-control017","block1",1,2,988,2,7,12,15
"17","sub-control017","block1",1,2,717,2,8,11,12
"17","sub-control017","block1",2,2,1532,1,9,12,11
"17","sub-control017","block1",1,2,952,5,10,1,12
"17","sub-control017","block1",1,2,711,2,11,13,1
"17","sub-control017","block1",1,2,768,4,12,14,13
"17","sub-control017","block1",3,1,2000,5,13,14,14
"17","sub-control017","block1",1,2,895,2,14,5,14
"17","sub-control017","block1",1,2,685,5,15,8,5
"17","sub-control017","block1",1,2,624,2,16,11,8
"17","sub-control017","block1",1,1,809,1,17,8,11
"17","sub-control017","block1",1,2,1132,5,18,10,8
"17","sub-control017","block1",3,1,2000,2,19,6,10
"17","sub-control017","block1",2,2,1359,1,20,10,6
"17","sub-control017","block2",1,2,1570,2,1,10,10
"17","sub-control017","block2",1,2,893,2,2,8,10
"17","sub-control017","block2",1,2,696,3,3,4,8
"17","sub-control017","block2",1,2,1124,4,4,11,4
"17","sub-control017","block2",1,2,740,3,5,12,11
"17","sub-control017","block2",1,2,1984,3,6,14,12
"17","sub-control017","block2",3,1,2000,3,7,8,14
"17","sub-control017","block2",1,2,877,5,8,15,8
"17","sub-control017","block2",1,2,1251,2,9,12,15
"17","sub-control017","block2",1,2,629,2,10,3,12
"17","sub-control017","block2",1,2,760,5,11,1,3
"17","sub-control017","block2",1,1,1766,1,12,3,1
"17","sub-control017","block2",3,1,2000,1,13,1,3
"17","sub-control017","block2",2,1,1386,2,14,13,1
"17","sub-control017","block2",3,1,2000,2,15,14,13
"17","sub-control017","block2",2,2,1618,1,16,13,14
"17","sub-control017","block2",1,2,1339,4,17,6,13
"17","sub-control017","block2",1,2,852,2,18,8,6
"17","sub-control017","block2",1,2,568,2,19,4,8
"17","sub-control017","block2",1,1,1159,1,20,8,4
"17","sub-control017","block3",1,2,1210,1,1,2,8
"17","sub-control017","block3",1,2,1193,4,2,10,2
"17","sub-control017","block3",1,2,1085,2,3,4,10
"17","sub-control017","block3",1,2,686,3,4,12,4
"17","sub-control017","block3",1,2,980,2,5,14,12
"17","sub-control017","block3",1,2,1125,3,6,3,14
"17","sub-control017","block3",1,2,856,4,7,5,3
"17","sub-control017","block3",1,2,1070,2,8,6,5
"17","sub-control017","block3",1,2,615,4,9,7,6
"17","sub-control017","block3",1,1,1054,1,10,6,7
"17","sub-control017","block3",1,2,783,5,11,1,6
"17","sub-control017","block3",1,1,841,1,12,6,1
"17","sub-control017","block3",2,1,1096,5,13,7,6
"17","sub-control017","block3",1,1,853,1,14,6,7
"17","sub-control017","block3",1,2,663,2,15,1,6
"17","sub-control017","block3",1,2,778,5,16,11,1
"17","sub-control017","block3",1,2,821,2,17,4,11
"17","sub-control017","block3",1,2,612,5,18,13,4
"17","sub-control017","block3",1,2,805,3,19,15,13
"17","sub-control017","block3",3,1,2000,3,20,15,15
"17","sub-control017","block4",1,2,790,2,1,8,15
"17","sub-control017","block4",1,2,471,3,2,7,8
"17","sub-control017","block4",1,2,476,3,3,1,7
"17","sub-control017","block4",1,2,690,2,4,9,1
"17","sub-control017","block4",1,2,983,3,5,10,9
"17","sub-control017","block4",3,1,2000,5,6,7,10
"17","sub-control017","block4",1,2,1505,5,7,6,7
"17","sub-control017","block4",1,2,668,3,8,5,6
"17","sub-control017","block4",1,2,868,3,9,5,5
"17","sub-control017","block4",1,2,667,2,10,4,5
"17","sub-control017","block4",1,1,725,1,11,5,4
"17","sub-control017","block4",1,2,969,4,12,5,5
"17","sub-control017","block4",1,2,811,5,13,4,5
"17","sub-control017","block4",1,2,719,2,14,2,4
"17","sub-control017","block4",1,2,879,3,15,2,2
"17","sub-control017","block4",1,2,746,2,16,8,2
"17","sub-control017","block4",1,2,819,2,17,7,8
"17","sub-control017","block4",1,2,561,3,18,2,7
"17","sub-control017","block4",1,2,635,3,19,5,2
"17","sub-control017","block4",1,2,528,5,20,14,5
"17","sub-control017","training",3,1,2000,1,1,1,0
"17","sub-control017","training",1,2,1389,5,2,14,1
"17","sub-control017","training",1,2,796,4,3,15,14
"17","sub-control017","training",1,2,1785,4,4,1,15
"17","sub-control017","training",2,1,1064,3,5,14,1
"17","sub-control017","training",1,2,642,5,6,13,14
"17","sub-control017","training",1,1,1225,1,7,14,13
"17","sub-control017","training",1,2,719,5,8,2,14
"17","sub-control017","training",1,2,1087,4,9,12,2
"17","sub-control017","training",1,1,742,1,10,2,12
"17","sub-control017","training",1,2,640,2,11,9,2
"17","sub-control017","training",1,1,952,1,12,2,9
"17","sub-control017","training",1,2,1568,4,13,1,2
"17","sub-control017","training",1,1,1154,1,14,2,1
"17","sub-control017","training",1,2,748,5,15,7,2
"17","sub-control017","training",1,2,775,4,16,13,7
"17","sub-control017","training",1,2,904,2,17,1,13
"17","sub-control017","training",1,2,679,5,18,15,1
"17","sub-control017","training",1,2,654,2,19,11,15
"17","sub-control017","training",1,2,605,4,20,12,11
"19","sub-control019","block1",1,2,1063,1,1,13,1
"19","sub-control019","block1",1,2,735,2,2,3,13
"19","sub-control019","block1",1,2,521,5,3,6,3
"19","sub-control019","block1",1,2,595,4,4,4,6
"19","sub-control019","block1",1,2,483,5,5,3,4
"19","sub-control019","block1",1,2,512,5,6,7,3
"19","sub-control019","block1",1,2,822,5,7,9,7
"19","sub-control019","block1",1,2,595,4,8,11,9
"19","sub-control019","block1",1,1,447,1,9,9,11
"19","sub-control019","block1",1,2,563,3,10,4,9
"19","sub-control019","block1",1,2,950,5,11,4,4
"19","sub-control019","block1",1,1,506,1,12,4,4
"19","sub-control019","block1",1,2,511,5,13,8,4
"19","sub-control019","block1",1,2,527,4,14,12,8
"19","sub-control019","block1",1,2,505,4,15,15,12
"19","sub-control019","block1",1,2,480,4,16,7,15
"19","sub-control019","block1",1,2,349,4,17,1,7
"19","sub-control019","block1",1,2,499,2,18,8,1
"19","sub-control019","block1",1,1,371,1,19,1,8
"19","sub-control019","block1",1,2,544,3,20,14,1
"19","sub-control019","block2",1,2,840,4,1,7,14
"19","sub-control019","block2",1,2,636,2,2,12,7
"19","sub-control019","block2",1,2,557,3,3,10,12
"19","sub-control019","block2",1,1,706,1,4,12,10
"19","sub-control019","block2",1,2,482,5,5,6,12
"19","sub-control019","block2",1,2,909,2,6,6,6
"19","sub-control019","block2",1,2,549,3,7,1,6
"19","sub-control019","block2",1,2,470,5,8,8,1
"19","sub-control019","block2",1,2,475,2,9,6,8
"19","sub-control019","block2",1,2,448,3,10,7,6
"19","sub-control019","block2",1,2,460,2,11,8,7
"19","sub-control019","block2",1,2,539,4,12,11,8
"19","sub-control019","block2",1,2,459,3,13,9,11
"19","sub-control019","block2",1,2,516,5,14,3,9
"19","sub-control019","block2",1,2,751,2,15,13,3
"19","sub-control019","block2",1,2,525,5,16,6,13
"19","sub-control019","block2",1,2,462,3,17,3,6
"19","sub-control019","block2",1,1,673,1,18,6,3
"19","sub-control019","block2",1,1,1119,1,19,3,6
"19","sub-control019","block2",1,1,1036,1,20,6,3
"19","sub-control019","block3",3,1,2000,5,1,11,6
"19","sub-control019","block3",1,2,796,1,2,13,11
"19","sub-control019","block3",1,2,519,5,3,7,13
"19","sub-control019","block3",1,2,389,2,4,3,7
"19","sub-control019","block3",1,2,468,3,5,1,3
"19","sub-control019","block3",1,2,605,4,6,5,1
"19","sub-control019","block3",1,2,534,3,7,6,5
"19","sub-control019","block3",1,2,626,2,8,8,6
"19","sub-control019","block3",1,1,429,1,9,6,8
"19","sub-control019","block3",1,2,497,4,10,14,6
"19","sub-control019","block3",1,2,555,2,11,15,14
"19","sub-control019","block3",1,2,473,4,12,5,15
"19","sub-control019","block3",1,2,521,5,13,4,5
"19","sub-control019","block3",1,2,491,4,14,9,4
"19","sub-control019","block3",2,1,667,3,15,5,9
"19","sub-control019","block3",1,2,763,5,16,12,5
"19","sub-control019","block3",1,1,522,1,17,5,12
"19","sub-control019","block3",1,2,814,3,18,4,5
"19","sub-control019","block3",1,2,586,5,19,6,4
"19","sub-control019","block3",1,2,502,2,20,9,6
"19","sub-control019","block4",1,2,780,2,1,3,9
"19","sub-control019","block4",1,2,559,2,2,12,3
"19","sub-control019","block4",1,2,575,2,3,10,12
"19","sub-control019","block4",1,1,562,1,4,12,10
"19","sub-control019","block4",1,2,423,4,5,9,12
"19","sub-control019","block4",1,2,460,3,6,14,9
"19","sub-control019","block4",1,2,484,5,7,2,14
"19","sub-control019","block4",1,2,368,2,8,9,2
"19","sub-control019","block4",1,2,445,5,9,7,9
"19","sub-control019","block4",1,2,464,5,10,5,7
"19","sub-control019","block4",1,2,429,2,11,11,5
"19","sub-control019","block4",1,2,421,3,12,7,11
"19","sub-control019","block4",1,2,389,2,13,10,7
"19","sub-control019","block4",1,2,513,4,14,5,10
"19","sub-control019","block4",1,2,428,3,15,4,5
"19","sub-control019","block4",1,1,643,1,16,5,4
"19","sub-control019","block4",1,1,698,1,17,4,5
"19","sub-control019","block4",1,2,554,3,18,11,4
"19","sub-control019","block4",1,1,532,1,19,4,11
"19","sub-control019","block4",1,2,687,4,20,8,4
"19","sub-control019","training",3,1,2000,2,1,7,0
"19","sub-control019","training",3,1,2000,2,2,1,7
"19","sub-control019","training",1,2,771,4,3,2,1
"19","sub-control019","training",1,2,592,4,4,3,2
"19","sub-control019","training",1,2,659,4,5,8,3
"19","sub-control019","training",1,1,550,1,6,3,8
"19","sub-control019","training",1,2,571,5,7,5,3
"19","sub-control019","training",1,2,664,2,8,14,5
"19","sub-control019","training",1,2,617,4,9,9,14
"19","sub-control019","training",1,1,606,1,10,14,9
"19","sub-control019","training",1,2,508,3,11,10,14
"19","sub-control019","training",1,2,649,5,12,12,10
"19","sub-control019","training",1,2,645,4,13,15,12
"19","sub-control019","training",1,2,679,4,14,2,15
"19","sub-control019","training",1,2,578,3,15,9,2
"19","sub-control019","training",1,2,537,5,16,11,9
"19","sub-control019","training",1,2,591,2,17,15,11
"19","sub-control019","training",1,2,595,5,18,10,15
"19","sub-control019","training",1,2,586,2,19,9,10
"19","sub-control019","training",1,2,728,2,20,1,9
"21","sub-control021","block1",3,1,2000,3,1,6,15
"21","sub-control021","block1",3,1,2000,5,2,1,6
"21","sub-control021","block1",1,2,1469,5,3,13,1
"21","sub-control021","block1",3,1,2000,5,4,9,13
"21","sub-control021","block1",1,2,1964,4,5,12,9
"21","sub-control021","block1",3,1,2000,3,6,5,12
"21","sub-control021","block1",1,2,1715,3,7,6,5
"21","sub-control021","block1",1,1,1230,1,8,5,6
"21","sub-control021","block1",1,2,1135,4,9,12,5
"21","sub-control021","block1",1,2,1071,4,10,1,12
"21","sub-control021","block1",3,1,2000,4,11,10,1
"21","sub-control021","block1",3,1,2000,5,12,12,10
"21","sub-control021","block1",3,1,2000,4,13,11,12
"21","sub-control021","block1",1,2,660,2,14,7,11
"21","sub-control021","block1",3,1,2000,5,15,2,7
"21","sub-control021","block1",1,2,84,2,16,4,2
"21","sub-control021","block1",1,2,1533,2,17,15,4
"21","sub-control021","block1",1,2,1514,4,18,12,15
"21","sub-control021","block1",1,1,1326,1,19,15,12
"21","sub-control021","block1",1,2,1603,3,20,14,15
"21","sub-control021","block2",3,1,2000,3,1,5,14
"21","sub-control021","block2",3,1,2000,2,2,8,5
"21","sub-control021","block2",1,2,1522,2,3,13,8
"21","sub-control021","block2",1,2,1287,5,4,4,13
"21","sub-control021","block2",1,2,987,5,5,4,4
"21","sub-control021","block2",1,2,1841,2,6,14,4
"21","sub-control021","block2",1,2,1547,5,7,5,14
"21","sub-control021","block2",1,2,1487,2,8,6,5
"21","sub-control021","block2",1,2,1181,4,9,15,6
"21","sub-control021","block2",2,1,1405,3,10,5,15
"21","sub-control021","block2",1,2,1431,2,11,3,5
"21","sub-control021","block2",1,2,1201,3,12,9,3
"21","sub-control021","block2",1,2,1586,2,13,12,9
"21","sub-control021","block2",1,2,1626,4,14,11,12
"21","sub-control021","block2",1,1,1245,1,15,12,11
"21","sub-control021","block2",1,2,1039,3,16,3,12
"21","sub-control021","block2",1,2,1169,5,17,2,3
"21","sub-control021","block2",1,2,1005,3,18,4,2
"21","sub-control021","block2",1,2,1785,5,19,5,4
"21","sub-control021","block2",3,1,2000,1,20,4,5
"21","sub-control021","block3",3,1,2000,5,1,9,4
"21","sub-control021","block3",3,1,2000,2,2,3,9
"21","sub-control021","block3",1,2,1064,4,3,6,3
"21","sub-control021","block3",1,2,1298,3,4,6,6
"21","sub-control021","block3",1,1,588,1,5,6,6
"21","sub-control021","block3",1,1,1152,1,6,6,6
"21","sub-control021","block3",1,1,834,1,7,6,6
"21","sub-control021","block3",1,2,879,4,8,5,6
"21","sub-control021","block3",1,2,1497,2,9,7,5
"21","sub-control021","block3",1,1,1543,1,10,5,7
"21","sub-control021","block3",2,1,1069,5,11,5,5
"21","sub-control021","block3",1,1,927,1,12,5,5
"21","sub-control021","block3",1,2,1288,4,13,8,5
"21","sub-control021","block3",1,2,1466,2,14,3,8
"21","sub-control021","block3",1,2,1698,3,15,9,3
"21","sub-control021","block3",1,2,1756,2,16,7,9
"21","sub-control021","block3",1,2,1676,2,17,6,7
"21","sub-control021","block3",3,1,2000,4,18,5,6
"21","sub-control021","block3",1,1,1469,1,19,6,5
"21","sub-control021","block3",1,2,1726,3,20,3,6
"21","sub-control021","block4",3,1,2000,5,1,7,3
"21","sub-control021","block4",3,1,2000,1,2,14,7
"21","sub-control021","block4",1,2,1287,3,3,10,14
"21","sub-control021","block4",1,2,1794,4,4,5,10
"21","sub-control021","block4",1,2,1463,4,5,7,5
"21","sub-control021","block4",1,2,1608,5,6,3,7
"21","sub-control021","block4",1,2,1449,4,7,11,3
"21","sub-control021","block4",1,2,1286,3,8,5,11
"21","sub-control021","block4",3,1,2000,3,9,14,5
"21","sub-control021","block4",1,2,1721,4,10,2,14
"21","sub-control021","block4",1,2,1130,4,11,6,2
"21","sub-control021","block4",1,2,1382,3,12,7,6
"21","sub-control021","block4",1,2,1424,3,13,12,7
"21","sub-control021","block4",1,2,1826,4,14,6,12
"21","sub-control021","block4",3,1,2000,1,15,12,6
"21","sub-control021","block4",1,2,1424,5,16,15,12
"21","sub-control021","block4",1,2,898,4,17,9,15
"21","sub-control021","block4",1,1,1351,1,18,15,9
"21","sub-control021","block4",3,1,2000,5,19,15,15
"21","sub-control021","block4",1,2,1047,2,20,12,15
"21","sub-control021","training",3,1,2000,4,1,13,0
"21","sub-control021","training",3,1,2000,2,2,11,13
"21","sub-control021","training",3,1,2000,5,3,4,11
"21","sub-control021","training",3,1,2000,2,4,13,4
"21","sub-control021","training",3,1,2000,4,5,13,13
"21","sub-control021","training",2,1,288,2,6,2,13
"21","sub-control021","training",3,1,2000,5,7,5,2
"21","sub-control021","training",3,1,2000,5,8,13,5
"21","sub-control021","training",3,1,2000,5,9,13,13
"21","sub-control021","training",3,1,2000,4,10,7,13
"21","sub-control021","training",3,1,2000,5,11,7,7
"21","sub-control021","training",1,1,589,1,12,7,7
"21","sub-control021","training",1,2,1487,5,13,3,7
"21","sub-control021","training",1,1,1171,1,14,7,3
"21","sub-control021","training",1,2,1059,4,15,11,7
"21","sub-control021","training",1,1,1014,1,16,7,11
"21","sub-control021","training",1,2,1127,5,17,12,7
"21","sub-control021","training",1,2,1295,3,18,6,12
"21","sub-control021","training",1,2,1503,4,19,7,6
"21","sub-control021","training",1,2,1107,3,20,15,7
"23","sub-control023","block1",3,1,2000,1,1,4,13
"23","sub-control023","block1",3,1,2000,3,2,9,4
"23","sub-control023","block1",3,1,2000,4,3,12,9
"23","sub-control023","block1",3,1,2000,3,4,5,12
"23","sub-control023","block1",3,1,2000,4,5,14,5
"23","sub-control023","block1",3,1,2000,5,6,11,14
"23","sub-control023","block1",1,2,981,3,7,6,11
"23","sub-control023","block1",1,2,790,3,8,2,6
"23","sub-control023","block1",1,1,727,1,9,6,2
"23","sub-control023","block1",1,2,761,5,10,15,6
"23","sub-control023","block1",1,2,945,2,11,14,15
"23","sub-control023","block1",1,2,979,4,12,10,14
"23","sub-control023","block1",2,1,698,5,13,6,10
"23","sub-control023","block1",2,1,1066,3,14,14,6
"23","sub-control023","block1",1,2,664,4,15,7,14
"23","sub-control023","block1",1,2,1040,3,16,3,7
"23","sub-control023","block1",2,1,746,4,17,3,3
"23","sub-control023","block1",1,2,918,2,18,4,3
"23","sub-control023","block1",1,2,1353,5,19,13,4
"23","sub-control023","block1",1,2,1691,3,20,1,13
"23","sub-control023","block2",3,1,2000,5,1,14,1
"23","sub-control023","block2",1,2,1230,4,2,8,14
"23","sub-control023","block2",1,2,765,5,3,3,8
"23","sub-control023","block2",1,2,590,5,4,11,3
"23","sub-control023","block2",1,2,706,2,5,12,11
"23","sub-control023","block2",1,1,663,1,6,11,12
"23","sub-control023","block2",1,2,771,5,7,15,11
"23","sub-control023","block2",1,1,554,1,8,11,15
"23","sub-control023","block2",1,2,1016,5,9,4,11
"23","sub-control023","block2",2,1,1405,5,10,13,4
"23","sub-control023","block2",1,1,810,1,11,4,13
"23","sub-control023","block2",2,1,783,3,12,4,4
"23","sub-control023","block2",1,1,544,1,13,4,4
"23","sub-control023","block2",1,1,723,1,14,4,4
"23","sub-control023","block2",1,2,736,2,15,6,4
"23","sub-control023","block2",1,1,660,1,16,4,6
"23","sub-control023","block2",1,2,613,5,17,9,4
"23","sub-control023","block2",2,2,1201,1,18,4,9
"23","sub-control023","block2",1,2,858,3,19,3,4
"23","sub-control023","block2",1,2,1145,3,20,12,3
"23","sub-control023","block3",1,2,1753,4,1,1,12
"23","sub-control023","block3",1,2,1163,5,2,13,1
"23","sub-control023","block3",1,1,641,1,3,1,13
"23","sub-control023","block3",1,2,1237,2,4,11,1
"23","sub-control023","block3",1,2,1547,5,5,14,11
"23","sub-control023","block3",1,1,1070,1,6,11,14
"23","sub-control023","block3",2,1,1383,4,7,1,11
"23","sub-control023","block3",2,1,1099,4,8,7,1
"23","sub-control023","block3",1,2,1324,2,9,10,7
"23","sub-control023","block3",1,2,1232,3,10,2,10
"23","sub-control023","block3",1,2,1016,3,11,9,2
"23","sub-control023","block3",1,2,1688,3,12,12,9
"23","sub-control023","block3",1,1,791,1,13,9,12
"23","sub-control023","block3",1,2,1150,3,14,1,9
"23","sub-control023","block3",1,2,1106,3,15,10,1
"23","sub-control023","block3",1,2,1521,3,16,6,10
"23","sub-control023","block3",1,2,1267,5,17,15,6
"23","sub-control023","block3",1,2,1027,3,18,14,15
"23","sub-control023","block3",1,2,1362,2,19,12,14
"23","sub-control023","block3",1,1,983,1,20,14,12
"23","sub-control023","block4",3,1,2000,2,1,4,14
"23","sub-control023","block4",1,2,627,1,2,6,4
"23","sub-control023","block4",1,2,693,4,3,3,6
"23","sub-control023","block4",1,2,1389,2,4,8,3
"23","sub-control023","block4",2,1,708,5,5,8,8
"23","sub-control023","block4",1,2,869,3,6,11,8
"23","sub-control023","block4",1,2,1338,4,7,3,11
"23","sub-control023","block4",1,2,913,2,8,13,3
"23","sub-control023","block4",2,1,1005,5,9,13,13
"23","sub-control023","block4",1,2,1185,5,10,7,13
"23","sub-control023","block4",3,1,2000,3,11,4,7
"23","sub-control023","block4",1,2,1074,5,12,11,4
"23","sub-control023","block4",1,2,1527,2,13,13,11
"23","sub-control023","block4",1,2,1029,3,14,9,13
"23","sub-control023","block4",1,2,724,3,15,10,9
"23","sub-control023","block4",1,2,800,5,16,12,10
"23","sub-control023","block4",1,2,803,3,17,13,12
"23","sub-control023","block4",2,2,657,1,18,12,13
"23","sub-control023","block4",1,1,710,1,19,13,12
"23","sub-control023","block4",2,1,912,2,20,11,13
"23","sub-control023","training",3,1,2000,5,1,5,0
"23","sub-control023","training",3,1,2000,3,2,4,5
"23","sub-control023","training",1,2,588,3,3,11,4
"23","sub-control023","training",1,2,591,3,4,9,11
"23","sub-control023","training",1,2,728,3,5,7,9
"23","sub-control023","training",1,2,557,2,6,8,7
"23","sub-control023","training",1,2,893,2,7,2,8
"23","sub-control023","training",1,1,718,1,8,8,2
"23","sub-control023","training",2,1,1327,2,9,7,8
"23","sub-control023","training",1,2,958,3,10,10,7
"23","sub-control023","training",2,2,1160,1,11,7,10
"23","sub-control023","training",2,1,769,3,12,12,7
"23","sub-control023","training",1,2,1635,2,13,5,12
"23","sub-control023","training",2,1,962,3,14,8,5
"23","sub-control023","training",2,1,799,2,15,12,8
"23","sub-control023","training",2,1,1232,3,16,10,12
"23","sub-control023","training",1,2,1172,4,17,3,10
"23","sub-control023","training",1,1,540,1,18,10,3
"23","sub-control023","training",1,2,1088,5,19,12,10
"23","sub-control023","training",1,2,1068,3,20,13,12
"25","sub-control025","block1",3,1,2000,3,1,15,13
"25","sub-control025","block1",3,1,2000,2,2,9,15
"25","sub-control025","block1",1,2,556,5,3,1,9
"25","sub-control025","block1",1,2,638,2,4,12,1
"25","sub-control025","block1",1,2,527,5,5,2,12
"25","sub-control025","block1",1,1,645,1,6,12,2
"25","sub-control025","block1",1,2,481,4,7,7,12
"25","sub-control025","block1",1,2,723,2,8,1,7
"25","sub-control025","block1",1,1,574,1,9,7,1
"25","sub-control025","block1",1,1,722,1,10,1,7
"25","sub-control025","block1",1,2,642,2,11,14,1
"25","sub-control025","block1",1,2,584,4,12,6,14
"25","sub-control025","block1",1,2,582,5,13,7,6
"25","sub-control025","block1",1,2,622,2,14,4,7
"25","sub-control025","block1",1,2,685,2,15,4,4
"25","sub-control025","block1",1,2,763,4,16,8,4
"25","sub-control025","block1",1,2,699,2,17,3,8
"25","sub-control025","block1",1,2,1210,2,18,4,3
"25","sub-control025","block1",1,2,916,5,19,7,4
"25","sub-control025","block1",1,1,764,1,20,4,7
"25","sub-control025","block2",3,1,2000,2,1,6,4
"25","sub-control025","block2",3,1,2000,1,2,11,6
"25","sub-control025","block2",1,2,632,3,3,10,11
"25","sub-control025","block2",1,2,600,3,4,9,10
"25","sub-control025","block2",1,2,571,5,5,12,9
"25","sub-control025","block2",1,2,693,3,6,2,12
"25","sub-control025","block2",1,2,708,3,7,4,2
"25","sub-control025","block2",1,1,686,1,8,2,4
"25","sub-control025","block2",1,2,557,5,9,1,2
"25","sub-control025","block2",1,2,749,3,10,1,1
"25","sub-control025","block2",1,2,723,2,11,15,1
"25","sub-control025","block2",1,2,619,3,12,11,15
"25","sub-control025","block2",1,2,604,5,13,4,11
"25","sub-control025","block2",1,2,529,2,14,9,4
"25","sub-control025","block2",1,2,594,5,15,2,9
"25","sub-control025","block2",1,2,529,2,16,8,2
"25","sub-control025","block2",1,1,1243,1,17,2,8
"25","sub-control025","block2",1,2,936,2,18,6,2
"25","sub-control025","block2",1,2,703,3,19,5,6
"25","sub-control025","block2",1,2,583,4,20,3,5
"25","sub-control025","block3",3,1,2000,5,1,12,3
"25","sub-control025","block3",3,1,2000,1,2,4,12
"25","sub-control025","block3",1,2,794,5,3,10,4
"25","sub-control025","block3",1,2,490,3,4,9,10
"25","sub-control025","block3",1,2,489,3,5,14,9
"25","sub-control025","block3",1,2,499,5,6,6,14
"25","sub-control025","block3",1,2,404,2,7,13,6
"25","sub-control025","block3",1,2,416,3,8,11,13
"25","sub-control025","block3",1,1,630,1,9,13,11
"25","sub-control025","block3",1,2,768,4,10,10,13
"25","sub-control025","block3",1,2,765,4,11,11,10
"25","sub-control025","block3",1,2,678,5,12,4,11
"25","sub-control025","block3",1,2,1288,3,13,10,4
"25","sub-control025","block3",1,1,762,1,14,4,10
"25","sub-control025","block3",1,2,701,2,15,8,4
"25","sub-control025","block3",1,2,883,2,16,3,8
"25","sub-control025","block3",1,2,823,5,17,5,3
"25","sub-control025","block3",1,2,603,3,18,6,5
"25","sub-control025","block3",1,2,502,3,19,11,6
"25","sub-control025","block3",1,2,1212,2,20,5,11
"25","sub-control025","block4",3,1,2000,1,1,5,5
"25","sub-control025","block4",3,1,2000,4,2,12,5
"25","sub-control025","block4",1,1,625,1,3,5,12
"25","sub-control025","block4",1,2,504,5,4,8,5
"25","sub-control025","block4",1,2,582,5,5,11,8
"25","sub-control025","block4",1,2,590,2,6,10,11
"25","sub-control025","block4",1,1,617,1,7,11,10
"25","sub-control025","block4",1,2,553,4,8,11,11
"25","sub-control025","block4",1,2,787,2,9,15,11
"25","sub-control025","block4",1,2,867,4,10,10,15
"25","sub-control025","block4",1,2,736,2,11,8,10
"25","sub-control025","block4",1,2,620,3,12,14,8
"25","sub-control025","block4",1,2,928,3,13,11,14
"25","sub-control025","block4",1,2,493,3,14,7,11
"25","sub-control025","block4",1,2,568,5,15,1,7
"25","sub-control025","block4",1,1,644,1,16,7,1
"25","sub-control025","block4",1,2,487,5,17,3,7
"25","sub-control025","block4",1,1,529,1,18,7,3
"25","sub-control025","block4",1,2,463,2,19,1,7
"25","sub-control025","block4",1,1,625,1,20,7,1
"25","sub-control025","training",3,1,2000,2,1,15,0
"25","sub-control025","training",3,1,2000,2,2,8,15
"25","sub-control025","training",3,1,2000,4,3,13,8
"25","sub-control025","training",3,1,2000,5,4,4,13
"25","sub-control025","training",3,1,2000,4,5,8,4
"25","sub-control025","training",3,1,2000,4,6,5,8
"25","sub-control025","training",3,1,2000,1,7,8,5
"25","sub-control025","training",3,1,2000,2,8,7,8
"25","sub-control025","training",1,2,933,4,9,5,7
"25","sub-control025","training",2,1,1150,4,10,5,5
"25","sub-control025","training",1,2,1510,4,11,2,5
"25","sub-control025","training",1,1,788,1,12,5,2
"25","sub-control025","training",1,2,706,5,13,4,5
"25","sub-control025","training",1,2,703,2,14,1,4
"25","sub-control025","training",1,2,716,5,15,11,1
"25","sub-control025","training",1,2,592,2,16,4,11
"25","sub-control025","training",1,2,591,4,17,1,4
"25","sub-control025","training",1,2,777,4,18,12,1
"25","sub-control025","training",1,2,784,2,19,7,12
"25","sub-control025","training",1,2,723,3,20,13,7
"27","sub-control027","block1",3,1,2000,2,1,4,4
"27","sub-control027","block1",3,1,2000,4,2,12,4
"27","sub-control027","block1",1,2,581,5,3,11,12
"27","sub-control027","block1",3,1,2000,3,4,8,11
"27","sub-control027","block1",3,1,2000,5,5,3,8
"27","sub-control027","block1",1,2,658,3,6,12,3
"27","sub-control027","block1",3,1,2000,1,7,3,12
"27","sub-control027","block1",3,1,2000,4,8,3,3
"27","sub-control027","block1",1,2,725,5,9,11,3
"27","sub-control027","block1",3,1,2000,3,10,11,11
"27","sub-control027","block1",3,1,2000,4,11,15,11
"27","sub-control027","block1",1,2,712,3,12,2,15
"27","sub-control027","block1",3,1,2000,2,13,12,2
"27","sub-control027","block1",3,1,2000,4,14,6,12
"27","sub-control027","block1",1,2,610,5,15,11,6
"27","sub-control027","block1",3,1,2000,4,16,15,11
"27","sub-control027","block1",3,1,2000,5,17,2,15
"27","sub-control027","block1",1,2,532,3,18,3,2
"27","sub-control027","block1",3,1,2000,3,19,11,3
"27","sub-control027","block1",3,1,2000,4,20,15,11
"27","sub-control027","block2",3,1,2000,2,1,4,15
"27","sub-control027","block2",3,1,2000,1,2,13,4
"27","sub-control027","block2",1,1,854,1,3,4,13
"27","sub-control027","block2",3,1,2000,2,4,9,4
"27","sub-control027","block2",3,1,2000,2,5,1,9
"27","sub-control027","block2",1,1,1494,1,6,9,1
"27","sub-control027","block2",3,1,2000,4,7,14,9
"27","sub-control027","block2",3,1,2000,5,8,11,14
"27","sub-control027","block2",1,2,714,5,9,4,11
"27","sub-control027","block2",3,1,2000,4,10,6,4
"27","sub-control027","block2",3,1,2000,4,11,13,6
"27","sub-control027","block2",1,2,845,5,12,3,13
"27","sub-control027","block2",3,1,2000,3,13,5,3
"27","sub-control027","block2",3,1,2000,1,14,3,5
"27","sub-control027","block2",1,2,1865,3,15,6,3
"27","sub-control027","block2",3,1,2000,1,16,3,6
"27","sub-control027","block2",3,1,2000,3,17,7,3
"27","sub-control027","block2",1,1,596,1,18,3,7
"27","sub-control027","block2",3,1,2000,5,19,4,3
"27","sub-control027","block2",3,1,2000,5,20,6,4
"27","sub-control027","block3",3,1,2000,1,1,5,6
"27","sub-control027","block3",3,1,2000,3,2,8,5
"27","sub-control027","block3",1,1,546,1,3,5,8
"27","sub-control027","block3",1,2,1490,2,4,14,5
"27","sub-control027","block3",3,1,2000,1,5,5,14
"27","sub-control027","block3",1,2,1045,5,6,13,5
"27","sub-control027","block3",3,1,2000,2,7,9,13
"27","sub-control027","block3",3,1,2000,5,8,12,9
"27","sub-control027","block3",1,2,829,3,9,2,12
"27","sub-control027","block3",3,1,2000,5,10,1,2
"27","sub-control027","block3",1,1,1138,1,11,2,1
"27","sub-control027","block3",1,2,691,4,12,15,2
"27","sub-control027","block3",1,2,900,4,13,12,15
"27","sub-control027","block3",1,1,710,1,14,15,12
"27","sub-control027","block3",2,2,802,1,15,12,15
"27","sub-control027","block3",1,2,781,3,16,4,12
"27","sub-control027","block3",1,2,1017,3,17,7,4
"27","sub-control027","block3",2,1,831,4,18,2,7
"27","sub-control027","block3",3,1,2000,2,19,3,2
"27","sub-control027","block3",1,2,798,2,20,13,3
"27","sub-control027","block4",3,1,2000,1,1,7,13
"27","sub-control027","block4",3,1,2000,5,2,15,7
"27","sub-control027","block4",1,2,635,2,3,13,15
"27","sub-control027","block4",1,2,948,2,4,12,13
"27","sub-control027","block4",1,2,785,3,5,7,12
"27","sub-control027","block4",1,2,805,5,6,4,7
"27","sub-control027","block4",1,2,763,2,7,3,4
"27","sub-control027","block4",2,1,1344,5,8,7,3
"27","sub-control027","block4",3,1,2000,3,9,9,7
"27","sub-control027","block4",1,2,529,5,10,6,9
"27","sub-control027","block4",1,2,1004,5,11,7,6
"27","sub-control027","block4",1,2,810,5,12,9,7
"27","sub-control027","block4",1,1,705,1,13,7,9
"27","sub-control027","block4",1,2,1124,4,14,4,7
"27","sub-control027","block4",1,1,826,1,15,7,4
"27","sub-control027","block4",1,2,661,2,16,6,7
"27","sub-control027","block4",1,2,1069,5,17,4,6
"27","sub-control027","block4",1,2,710,3,18,5,4
"27","sub-control027","block4",1,2,650,4,19,1,5
"27","sub-control027","block4",1,1,560,1,20,5,1
"27","sub-control027","training",3,1,2000,3,1,13,0
"27","sub-control027","training",3,1,2000,5,2,15,13
"27","sub-control027","training",3,1,2000,2,3,5,15
"27","sub-control027","training",3,1,2000,5,4,7,5
"27","sub-control027","training",1,1,1670,1,5,5,7
"27","sub-control027","training",3,1,2000,3,6,12,5
"27","sub-control027","training",3,1,2000,5,7,6,12
"27","sub-control027","training",1,1,855,1,8,12,6
"27","sub-control027","training",3,1,2000,1,9,6,12
"27","sub-control027","training",3,1,2000,3,10,11,6
"27","sub-control027","training",3,1,2000,3,11,3,11
"27","sub-control027","training",3,1,2000,1,12,11,3
"27","sub-control027","training",1,1,1182,1,13,3,11
"27","sub-control027","training",3,1,2000,2,14,12,3
"27","sub-control027","training",3,1,2000,4,15,2,12
"27","sub-control027","training",3,1,2000,2,16,11,2
"27","sub-control027","training",1,1,1347,1,17,2,11
"27","sub-control027","training",3,1,2000,2,18,2,2
"27","sub-control027","training",3,1,2000,4,19,14,2
"27","sub-control027","training",3,1,2000,2,20,4,14
"29","sub-control029","block1",3,1,2000,4,1,9,1
"29","sub-control029","block1",1,2,1639,5,2,15,9
"29","sub-control029","block1",1,1,895,1,3,9,15
"29","sub-control029","block1",1,2,877,5,4,1,9
"29","sub-control029","block1",1,2,769,5,5,4,1
"29","sub-control029","block1",1,2,780,2,6,8,4
"29","sub-control029","block1",1,1,738,1,7,4,8
"29","sub-control029","block1",1,2,1138,4,8,9,4
"29","sub-control029","block1",1,2,1958,2,9,10,9
"29","sub-control029","block1",1,1,1096,1,10,9,10
"29","sub-control029","block1",1,2,967,4,11,2,9
"29","sub-control029","block1",1,2,963,4,12,1,2
"29","sub-control029","block1",1,2,975,2,13,7,1
"29","sub-control029","block1",1,1,1155,1,14,1,7
"29","sub-control029","block1",1,2,1212,5,15,3,1
"29","sub-control029","block1",1,1,885,1,16,1,3
"29","sub-control029","block1",1,2,1253,2,17,9,1
"29","sub-control029","block1",1,2,744,3,18,6,9
"29","sub-control029","block1",1,2,1416,4,19,7,6
"29","sub-control029","block1",2,1,1310,4,20,7,7
"29","sub-control029","block2",3,1,2000,2,1,3,7
"29","sub-control029","block2",1,2,1178,1,2,13,3
"29","sub-control029","block2",1,2,671,5,3,9,13
"29","sub-control029","block2",1,2,1236,4,4,11,9
"29","sub-control029","block2",1,1,766,1,5,9,11
"29","sub-control029","block2",1,2,1491,5,6,15,9
"29","sub-control029","block2",1,1,819,1,7,9,15
"29","sub-control029","block2",2,2,614,1,8,15,9
"29","sub-control029","block2",1,2,1501,5,9,6,15
"29","sub-control029","block2",1,2,841,5,10,10,6
"29","sub-control029","block2",2,1,884,3,11,15,10
"29","sub-control029","block2",3,1,2000,5,12,5,15
"29","sub-control029","block2",1,2,1328,3,13,10,5
"29","sub-control029","block2",1,2,1172,2,14,9,10
"29","sub-control029","block2",1,2,778,5,15,3,9
"29","sub-control029","block2",1,1,929,1,16,9,3
"29","sub-control029","block2",1,2,1428,4,17,5,9
"29","sub-control029","block2",1,2,1062,5,18,8,5
"29","sub-control029","block2",1,2,1654,5,19,9,8
"29","sub-control029","block2",1,1,843,1,20,8,9
"29","sub-control029","block3",3,1,2000,4,1,7,8
"29","sub-control029","block3",1,2,758,5,2,5,7
"29","sub-control029","block3",1,2,749,4,3,12,5
"29","sub-control029","block3",1,1,850,1,4,5,12
"29","sub-control029","block3",1,2,936,4,5,2,5
"29","sub-control029","block3",1,2,1573,2,6,1,2
"29","sub-control029","block3",3,1,2000,1,7,2,1
"29","sub-control029","block3",1,2,1685,4,8,4,2
"29","sub-control029","block3",1,2,963,5,9,6,4
"29","sub-control029","block3",1,2,1568,2,10,5,6
"29","sub-control029","block3",1,1,1003,1,11,6,5
"29","sub-control029","block3",1,2,1027,5,12,12,6
"29","sub-control029","block3",1,2,1758,2,13,5,12
"29","sub-control029","block3",1,2,1223,2,14,4,5
"29","sub-control029","block3",1,2,917,4,15,3,4
"29","sub-control029","block3",2,1,939,4,16,5,3
"29","sub-control029","block3",3,1,2000,5,17,2,5
"29","sub-control029","block3",3,1,2000,3,18,7,2
"29","sub-control029","block3",1,1,1621,1,19,2,7
"29","sub-control029","block3",1,2,1054,2,20,8,2
"29","sub-control029","block4",1,2,1141,3,1,1,8
"29","sub-control029","block4",1,2,794,3,2,6,1
"29","sub-control029","block4",1,1,807,1,3,1,6
"29","sub-control029","block4",1,2,926,3,4,13,1
"29","sub-control029","block4",1,1,792,1,5,1,13
"29","sub-control029","block4",1,1,805,1,6,13,1
"29","sub-control029","block4",3,1,2000,2,7,10,13
"29","sub-control029","block4",1,1,1507,1,8,13,10
"29","sub-control029","block4",3,1,2000,4,9,3,13
"29","sub-control029","block4",1,2,1546,4,10,15,3
"29","sub-control029","block4",1,2,926,2,11,2,15
"29","sub-control029","block4",1,1,1389,1,12,15,2
"29","sub-control029","block4",1,2,1180,3,13,5,15
"29","sub-control029","block4",1,2,866,4,14,7,5
"29","sub-control029","block4",1,2,1015,2,15,12,7
"29","sub-control029","block4",1,1,775,1,16,7,12
"29","sub-control029","block4",1,2,906,5,17,2,7
"29","sub-control029","block4",1,1,770,1,18,7,2
"29","sub-control029","block4",1,2,1340,3,19,12,7
"29","sub-control029","block4",1,1,1102,1,20,7,12
"29","sub-control029","training",3,1,2000,2,1,4,0
"29","sub-control029","training",3,1,2000,4,2,4,4
"29","sub-control029","training",1,2,1799,2,3,14,4
"29","sub-control029","training",3,1,2000,1,4,4,14
"29","sub-control029","training",3,1,2000,5,5,3,4
"29","sub-control029","training",3,1,2000,5,6,2,3
"29","sub-control029","training",3,1,2000,4,7,12,2
"29","sub-control029","training",3,1,2000,2,8,1,12
"29","sub-control029","training",3,1,2000,4,9,4,1
"29","sub-control029","training",3,1,2000,5,10,2,4
"29","sub-control029","training",3,1,2000,3,11,9,2
"29","sub-control029","training",3,1,2000,4,12,15,9
"29","sub-control029","training",3,1,2000,5,13,7,15
"29","sub-control029","training",3,1,2000,5,14,6,7
"29","sub-control029","training",1,1,1220,1,15,7,6
"29","sub-control029","training",3,1,2000,2,16,4,7
"29","sub-control029","training",3,1,2000,3,17,11,4
"29","sub-control029","training",3,1,2000,5,18,1,11
"29","sub-control029","training",1,2,832,3,19,5,1
"29","sub-control029","training",1,1,1016,1,20,1,5
"31","sub-control031","block1",3,1,2000,5,1,10,8
"31","sub-control031","block1",3,1,2000,1,2,10,10
"31","sub-control031","block1",1,1,1213,1,3,10,10
"31","sub-control031","block1",1,2,1726,4,4,15,10
"31","sub-control031","block1",2,2,139,1,5,10,15
"31","sub-control031","block1",1,2,669,3,6,5,10
"31","sub-control031","block1",3,1,2000,3,7,3,5
"31","sub-control031","block1",3,1,2000,2,8,10,3
"31","sub-control031","block1",2,2,1978,1,9,3,10
"31","sub-control031","block1",1,2,86,4,10,11,3
"31","sub-control031","block1",3,1,2000,5,11,1,11
"31","sub-control031","block1",3,1,2000,5,12,7,1
"31","sub-control031","block1",2,1,1549,5,13,11,7
"31","sub-control031","block1",2,2,232,1,14,7,11
"31","sub-control031","block1",3,1,2000,5,15,6,7
"31","sub-control031","block1",3,1,2000,2,16,11,6
"31","sub-control031","block1",3,1,2000,2,17,14,11
"31","sub-control031","block1",3,1,2000,5,18,2,14
"31","sub-control031","block1",3,1,2000,2,19,15,2
"31","sub-control031","block1",3,1,2000,4,20,1,15
"31","sub-control031","block2",3,1,2000,1,1,14,1
"31","sub-control031","block2",3,1,2000,4,2,15,14
"31","sub-control031","block2",1,1,603,1,3,14,15
"31","sub-control031","block2",1,2,1971,3,4,2,14
"31","sub-control031","block2",1,2,210,4,5,8,2
"31","sub-control031","block2",3,1,2000,4,6,10,8
"31","sub-control031","block2",3,1,2000,5,7,5,10
"31","sub-control031","block2",3,1,2000,4,8,3,5
"31","sub-control031","block2",3,1,2000,5,9,15,3
"31","sub-control031","block2",3,1,2000,2,10,5,15
"31","sub-control031","block2",2,1,72,2,11,6,5
"31","sub-control031","block2",3,1,2000,4,12,9,6
"31","sub-control031","block2",3,1,2000,4,13,9,9
"31","sub-control031","block2",1,1,419,1,14,9,9
"31","sub-control031","block2",1,2,1336,3,15,10,9
"31","sub-control031","block2",3,1,2000,2,16,13,10
"31","sub-control031","block2",1,2,1857,5,17,2,13
"31","sub-control031","block2",1,2,1110,4,18,8,2
"31","sub-control031","block2",1,2,681,5,19,10,8
"31","sub-control031","block2",1,1,913,1,20,8,10
"31","sub-control031","block3",3,1,2000,5,1,3,8
"31","sub-control031","block3",3,1,2000,1,2,1,3
"31","sub-control031","block3",3,1,2000,5,3,1,1
"31","sub-control031","block3",1,2,1277,2,4,2,1
"31","sub-control031","block3",1,2,1056,3,5,3,2
"31","sub-control031","block3",1,2,829,2,6,15,3
"31","sub-control031","block3",1,1,695,1,7,3,15
"31","sub-control031","block3",1,1,1086,1,8,15,3
"31","sub-control031","block3",1,2,692,5,9,2,15
"31","sub-control031","block3",1,2,1864,2,10,11,2
"31","sub-control031","block3",1,2,979,2,11,14,11
"31","sub-control031","block3",1,1,778,1,12,11,14
"31","sub-control031","block3",1,2,913,4,13,13,11
"31","sub-control031","block3",1,2,989,5,14,2,13
"31","sub-control031","block3",1,2,751,5,15,1,2
"31","sub-control031","block3",1,2,557,5,16,3,1
"31","sub-control031","block3",1,2,593,3,17,10,3
"31","sub-control031","block3",1,2,940,3,18,10,10
"31","sub-control031","block3",1,1,576,1,19,10,10
"31","sub-control031","block3",1,1,594,1,20,10,10
"31","sub-control031","block4",3,1,2000,2,1,13,10
"31","sub-control031","block4",3,1,2000,5,2,7,13
"31","sub-control031","block4",1,1,889,1,3,13,7
"31","sub-control031","block4",1,1,937,1,4,7,13
"31","sub-control031","block4",1,1,502,1,5,13,7
"31","sub-control031","block4",1,2,532,3,6,15,13
"31","sub-control031","block4",1,2,1096,2,7,11,15
"31","sub-control031","block4",1,2,929,5,8,11,11
"31","sub-control031","block4",1,2,866,2,9,9,11
"31","sub-control031","block4",1,2,678,4,10,8,9
"31","sub-control031","block4",1,2,722,3,11,11,8
"31","sub-control031","block4",1,2,618,5,12,2,11
"31","sub-control031","block4",1,1,878,1,13,11,2
"31","sub-control031","block4",1,2,631,3,14,3,11
"31","sub-control031","block4",1,1,648,1,15,11,3
"31","sub-control031","block4",1,2,1125,4,16,12,11
"31","sub-control031","block4",1,2,812,3,17,7,12
"31","sub-control031","block4",1,2,1010,3,18,15,7
"31","sub-control031","block4",1,1,628,1,19,7,15
"31","sub-control031","block4",1,2,729,3,20,11,7
"31","sub-control031","training",3,1,2000,2,1,15,0
"31","sub-control031","training",3,1,2000,5,2,15,15
"31","sub-control031","training",1,2,1136,3,3,2,15
"31","sub-control031","training",1,2,1067,2,4,8,2
"31","sub-control031","training",1,2,776,5,5,9,8
"31","sub-control031","training",1,2,886,5,6,10,9
"31","sub-control031","training",1,2,1294,2,7,2,10
"31","sub-control031","training",2,2,1067,1,8,10,2
"31","sub-control031","training",1,2,1264,2,9,14,10
"31","sub-control031","training",1,2,1158,4,10,4,14
"31","sub-control031","training",1,2,690,4,11,9,4
"31","sub-control031","training",2,2,1043,1,12,4,9
"31","sub-control031","training",1,2,1294,3,13,4,4
"31","sub-control031","training",1,1,571,1,14,4,4
"31","sub-control031","training",1,1,563,1,15,4,4
"31","sub-control031","training",1,2,903,2,16,11,4
"31","sub-control031","training",1,2,1714,2,17,15,11
"31","sub-control031","training",1,1,1001,1,18,11,15
"31","sub-control031","training",1,2,733,4,19,7,11
"31","sub-control031","training",1,2,999,5,20,8,7
"33","sub-control033","block1",3,1,2000,3,1,5,12
"33","sub-control033","block1",1,2,1477,5,2,9,5
"33","sub-control033","block1",1,2,775,5,3,3,9
"33","sub-control033","block1",1,2,1775,4,4,11,3
"33","sub-control033","block1",1,2,995,3,5,9,11
"33","sub-control033","block1",1,2,800,5,6,10,9
"33","sub-control033","block1",1,2,788,3,7,15,10
"33","sub-control033","block1",1,1,925,1,8,10,15
"33","sub-control033","block1",1,1,959,1,9,15,10
"33","sub-control033","block1",1,2,1191,2,10,2,15
"33","sub-control033","block1",1,2,821,5,11,1,2
"33","sub-control033","block1",1,2,937,5,12,7,1
"33","sub-control033","block1",1,2,880,4,13,2,7
"33","sub-control033","block1",1,2,900,5,14,15,2
"33","sub-control033","block1",1,2,978,2,15,11,15
"33","sub-control033","block1",1,2,1020,2,16,12,11
"33","sub-control033","block1",1,1,1024,1,17,11,12
"33","sub-control033","block1",1,1,1301,1,18,12,11
"33","sub-control033","block1",1,2,1178,4,19,6,12
"33","sub-control033","block1",1,2,909,3,20,14,6
"33","sub-control033","block2",3,1,2000,2,1,1,14
"33","sub-control033","block2",3,1,2000,4,2,12,1
"33","sub-control033","block2",1,1,1098,1,3,1,12
"33","sub-control033","block2",1,2,821,3,4,14,1
"33","sub-control033","block2",1,2,1211,3,5,5,14
"33","sub-control033","block2",1,2,1355,4,6,6,5
"33","sub-control033","block2",1,2,1164,2,7,11,6
"33","sub-control033","block2",1,1,770,1,8,6,11
"33","sub-control033","block2",1,2,1455,4,9,10,6
"33","sub-control033","block2",1,2,1532,2,10,12,10
"33","sub-control033","block2",2,1,890,4,11,11,12
"33","sub-control033","block2",1,2,1435,3,12,7,11
"33","sub-control033","block2",1,2,956,5,13,9,7
"33","sub-control033","block2",2,1,1126,5,14,11,9
"33","sub-control033","block2",1,2,972,2,15,3,11
"33","sub-control033","block2",1,2,1832,2,16,15,3
"33","sub-control033","block2",1,1,1876,1,17,3,15
"33","sub-control033","block2",1,2,1718,4,18,13,3
"33","sub-control033","block2",3,1,2000,3,19,14,13
"33","sub-control033","block2",1,2,1965,2,20,12,14
"33","sub-control033","block3",3,1,2000,3,1,10,12
"33","sub-control033","block3",3,1,2000,1,2,6,10
"33","sub-control033","block3",1,1,385,1,3,10,6
"33","sub-control033","block3",1,2,902,2,4,9,10
"33","sub-control033","block3",1,1,912,1,5,10,9
"33","sub-control033","block3",1,1,1114,1,6,9,10
"33","sub-control033","block3",1,1,1360,1,7,10,9
"33","sub-control033","block3",1,2,1093,4,8,15,10
"33","sub-control033","block3",1,2,1057,5,9,6,15
"33","sub-control033","block3",1,2,860,5,10,4,6
"33","sub-control033","block3",1,2,789,5,11,2,4
"33","sub-control033","block3",1,2,725,2,12,12,2
"33","sub-control033","block3",1,2,605,3,13,14,12
"33","sub-control033","block3",1,2,709,5,14,5,14
"33","sub-control033","block3",1,1,841,1,15,14,5
"33","sub-control033","block3",1,2,1179,5,16,8,14
"33","sub-control033","block3",1,2,1665,5,17,5,8
"33","sub-control033","block3",1,2,1729,5,18,10,5
"33","sub-control033","block3",1,2,1008,4,19,2,10
"33","sub-control033","block3",1,2,1070,3,20,9,2
"33","sub-control033","block4",3,1,2000,1,1,5,9
"33","sub-control033","block4",3,1,2000,2,2,1,5
"33","sub-control033","block4",1,2,1848,4,3,1,1
"33","sub-control033","block4",1,1,1391,1,4,1,1
"33","sub-control033","block4",1,2,1328,4,5,15,1
"33","sub-control033","block4",1,1,1069,1,6,1,15
"33","sub-control033","block4",1,1,1438,1,7,15,1
"33","sub-control033","block4",2,1,1275,3,8,5,15
"33","sub-control033","block4",1,2,1467,5,9,12,5
"33","sub-control033","block4",1,1,992,1,10,5,12
"33","sub-control033","block4",1,2,890,5,11,8,5
"33","sub-control033","block4",1,2,1226,5,12,3,8
"33","sub-control033","block4",1,2,1241,4,13,13,3
"33","sub-control033","block4",1,1,717,1,14,3,13
"33","sub-control033","block4",1,2,1538,2,15,8,3
"33","sub-control033","block4",1,2,1410,5,16,7,8
"33","sub-control033","block4",1,1,1152,1,17,8,7
"33","sub-control033","block4",1,2,1442,3,18,9,8
"33","sub-control033","block4",1,1,888,1,19,8,9
"33","sub-control033","block4",1,2,1428,4,20,12,8
"33","sub-control033","training",3,1,2000,3,1,15,0
"33","sub-control033","training",3,1,2000,5,2,7,15
"33","sub-control033","training",1,2,1187,4,3,5,7
"33","sub-control033","training",1,2,1015,2,4,12,5
"33","sub-control033","training",1,1,861,1,5,5,12
"33","sub-control033","training",1,2,1115,4,6,7,5
"33","sub-control033","training",1,2,1489,5,7,8,7
"33","sub-control033","training",1,2,1571,4,8,6,8
"33","sub-control033","training",2,1,2016,4,9,11,6
"33","sub-control033","training",1,2,1851,5,10,9,11
"33","sub-control033","training",1,1,1023,1,11,11,9
"33","sub-control033","training",1,2,1098,2,12,13,11
"33","sub-control033","training",2,1,1340,2,13,9,13
"33","sub-control033","training",3,1,2000,2,14,9,9
"33","sub-control033","training",2,2,1509,1,15,9,9
"33","sub-control033","training",3,1,2000,4,16,15,9
"33","sub-control033","training",3,1,2000,2,17,8,15
"33","sub-control033","training",1,2,1193,5,18,5,8
"33","sub-control033","training",1,2,1428,3,19,6,5
"33","sub-control033","training",1,2,1223,5,20,12,6
"35","sub-control035","block1",3,1,2000,1,1,10,9
"35","sub-control035","block1",3,1,2000,3,2,10,10
"35","sub-control035","block1",1,2,1722,4,3,1,10
"35","sub-control035","block1",1,1,1497,1,4,10,1
"35","sub-control035","block1",1,2,1059,2,5,5,10
"35","sub-control035","block1",1,2,1625,3,6,13,5
"35","sub-control035","block1",2,2,1148,1,7,5,13
"35","sub-control035","block1",1,2,917,4,8,14,5
"35","sub-control035","block1",1,2,789,3,9,8,14
"35","sub-control035","block1",1,2,716,3,10,15,8
"35","sub-control035","block1",1,1,1289,1,11,8,15
"35","sub-control035","block1",2,2,737,1,12,15,8
"35","sub-control035","block1",1,2,738,2,13,4,15
"35","sub-control035","block1",1,2,707,3,14,2,4
"35","sub-control035","block1",2,1,613,4,15,10,2
"35","sub-control035","block1",1,2,756,3,16,10,10
"35","sub-control035","block1",1,2,535,2,17,11,10
"35","sub-control035","block1",1,2,832,3,18,3,11
"35","sub-control035","block1",1,2,617,4,19,15,3
"35","sub-control035","block1",1,2,462,4,20,7,15
"35","sub-control035","block2",1,2,1724,1,1,7,7
"35","sub-control035","block2",1,2,833,2,2,1,7
"35","sub-control035","block2",1,2,560,2,3,11,1
"35","sub-control035","block2",1,2,406,3,4,9,11
"35","sub-control035","block2",1,2,466,5,5,14,9
"35","sub-control035","block2",1,2,1034,3,6,15,14
"35","sub-control035","block2",2,2,477,1,7,14,15
"35","sub-control035","block2",3,1,2000,1,8,15,14
"35","sub-control035","block2",1,2,527,2,9,13,15
"35","sub-control035","block2",1,2,1156,5,10,1,13
"35","sub-control035","block2",1,2,887,2,11,14,1
"35","sub-control035","block2",1,2,1023,4,12,14,14
"35","sub-control035","block2",1,2,826,2,13,11,14
"35","sub-control035","block2",1,1,1337,1,14,14,11
"35","sub-control035","block2",1,2,823,3,15,9,14
"35","sub-control035","block2",1,2,795,5,16,8,9
"35","sub-control035","block2",1,1,832,1,17,9,8
"35","sub-control035","block2",1,2,997,2,18,12,9
"35","sub-control035","block2",1,2,572,5,19,11,12
"35","sub-control035","block2",1,2,948,2,20,10,11
"35","sub-control035","block3",3,1,2000,2,1,8,10
"35","sub-control035","block3",3,1,2000,5,2,15,8
"35","sub-control035","block3",1,2,1484,3,3,5,15
"35","sub-control035","block3",1,2,846,3,4,13,5
"35","sub-control035","block3",1,2,632,5,5,15,13
"35","sub-control035","block3",1,2,877,3,6,2,15
"35","sub-control035","block3",1,2,544,4,7,11,2
"35","sub-control035","block3",1,2,566,2,8,5,11
"35","sub-control035","block3",1,2,821,4,9,4,5
"35","sub-control035","block3",1,2,736,5,10,10,4
"35","sub-control035","block3",1,2,646,5,11,6,10
"35","sub-control035","block3",1,2,590,2,12,1,6
"35","sub-control035","block3",1,2,574,4,13,3,1
"35","sub-control035","block3",1,2,522,4,14,15,3
"35","sub-control035","block3",1,2,522,5,15,1,15
"35","sub-control035","block3",1,2,757,3,16,7,1
"35","sub-control035","block3",1,2,592,3,17,2,7
"35","sub-control035","block3",1,2,477,4,18,6,2
"35","sub-control035","block3",1,2,723,5,19,13,6
"35","sub-control035","block3",1,2,730,2,20,5,13
"35","sub-control035","block4",1,2,1326,5,1,11,5
"35","sub-control035","block4",1,2,851,2,2,14,11
"35","sub-control035","block4",1,2,1414,3,3,14,14
"35","sub-control035","block4",1,2,721,3,4,15,14
"35","sub-control035","block4",1,2,565,4,5,1,15
"35","sub-control035","block4",1,2,552,2,6,13,1
"35","sub-control035","block4",1,2,676,2,7,7,13
"35","sub-control035","block4",1,2,545,5,8,10,7
"35","sub-control035","block4",1,2,552,5,9,14,10
"35","sub-control035","block4",1,2,921,4,10,14,14
"35","sub-control035","block4",1,2,693,5,11,3,14
"35","sub-control035","block4",1,2,517,2,12,5,3
"35","sub-control035","block4",1,2,725,2,13,13,5
"35","sub-control035","block4",1,2,430,5,14,11,13
"35","sub-control035","block4",1,2,529,3,15,4,11
"35","sub-control035","block4",1,2,597,3,16,9,4
"35","sub-control035","block4",1,2,489,3,17,1,9
"35","sub-control035","block4",1,2,1754,4,18,1,1
"35","sub-control035","block4",2,1,1342,3,19,9,1
"35","sub-control035","block4",1,2,677,4,20,5,9
"35","sub-control035","training",3,1,2000,3,1,12,0
"35","sub-control035","training",3,1,2000,2,2,9,12
"35","sub-control035","training",3,1,2000,1,3,12,9
"35","sub-control035","training",3,1,2000,3,4,10,12
"35","sub-control035","training",3,1,2000,1,5,12,10
"35","sub-control035","training",3,1,2000,3,6,14,12
"35","sub-control035","training",3,1,2000,4,7,14,14
"35","sub-control035","training",3,1,2000,5,8,2,14
"35","sub-control035","training",3,1,2000,4,9,8,2
"35","sub-control035","training",3,1,2000,2,10,11,8
"35","sub-control035","training",2,1,1236,2,11,9,11
"35","sub-control035","training",3,1,2000,2,12,4,9
"35","sub-control035","training",3,1,2000,1,13,9,4
"35","sub-control035","training",2,2,1383,1,14,4,9
"35","sub-control035","training",3,1,2000,2,15,11,4
"35","sub-control035","training",3,1,2000,4,16,8,11
"35","sub-control035","training",3,1,2000,5,17,9,8
"35","sub-control035","training",3,1,2000,4,18,7,9
"35","sub-control035","training",3,1,2000,2,19,3,7
"35","sub-control035","training",3,1,2000,3,20,9,3
"37","sub-control037","block1",3,1,2000,5,1,9,9
"37","sub-control037","block1",3,1,2000,5,2,5,9
"37","sub-control037","block1",3,1,2000,1,3,9,5
"37","sub-control037","block1",3,1,2000,4,4,14,9
"37","sub-control037","block1",2,1,862,3,5,11,14
"37","sub-control037","block1",2,2,1369,1,6,14,11
"37","sub-control037","block1",1,2,1158,3,7,6,14
"37","sub-control037","block1",1,2,557,3,8,15,6
"37","sub-control037","block1",1,2,550,3,9,4,15
"37","sub-control037","block1",1,2,594,5,10,13,4
"37","sub-control037","block1",1,1,1004,1,11,4,13
"37","sub-control037","block1",2,1,1201,4,12,6,4
"37","sub-control037","block1",1,2,988,3,13,9,6
"37","sub-control037","block1",1,2,696,5,14,1,9
"37","sub-control037","block1",1,1,1018,1,15,9,1
"37","sub-control037","block1",1,1,1367,1,16,1,9
"37","sub-control037","block1",1,2,948,2,17,3,1
"37","sub-control037","block1",2,1,1304,2,18,9,3
"37","sub-control037","block1",1,2,987,4,19,10,9
"37","sub-control037","block1",1,2,674,4,20,5,10
"37","sub-control037","block2",3,1,2000,4,1,5,5
"37","sub-control037","block2",3,1,2000,5,2,1,5
"37","sub-control037","block2",1,2,1553,5,3,6,1
"37","sub-control037","block2",1,2,869,4,4,13,6
"37","sub-control037","block2",1,2,791,2,5,1,13
"37","sub-control037","block2",1,1,1016,1,6,13,1
"37","sub-control037","block2",1,2,1499,5,7,6,13
"37","sub-control037","block2",1,1,1335,1,8,13,6
"37","sub-control037","block2",1,2,748,5,9,7,13
"37","sub-control037","block2",1,2,717,5,10,7,7
"37","sub-control037","block2",1,1,1041,1,11,7,7
"37","sub-control037","block2",1,2,799,4,12,5,7
"37","sub-control037","block2",1,1,963,1,13,7,5
"37","sub-control037","block2",1,2,821,3,14,10,7
"37","sub-control037","block2",1,2,845,4,15,2,10
"37","sub-control037","block2",1,2,695,5,16,9,2
"37","sub-control037","block2",1,2,479,2,17,11,9
"37","sub-control037","block2",1,2,418,2,18,3,11
"37","sub-control037","block2",1,2,704,2,19,12,3
"37","sub-control037","block2",1,2,657,3,20,4,12
"37","sub-control037","block3",3,1,2000,2,1,3,4
"37","sub-control037","block3",3,1,2000,2,2,8,3
"37","sub-control037","block3",1,2,1177,3,3,11,8
"37","sub-control037","block3",1,1,1011,1,4,8,11
"37","sub-control037","block3",1,2,875,2,5,6,8
"37","sub-control037","block3",1,2,960,5,6,3,6
"37","sub-control037","block3",2,1,979,2,7,8,3
"37","sub-control037","block3",1,2,1055,4,8,4,8
"37","sub-control037","block3",1,2,565,5,9,15,4
"37","sub-control037","block3",2,2,548,1,10,4,15
"37","sub-control037","block3",2,1,1260,5,11,3,4
"37","sub-control037","block3",1,2,1152,2,12,8,3
"37","sub-control037","block3",1,2,864,3,13,1,8
"37","sub-control037","block3",1,2,701,4,14,15,1
"37","sub-control037","block3",1,2,992,2,15,5,15
"37","sub-control037","block3",1,2,733,3,16,12,5
"37","sub-control037","block3",1,2,1239,3,17,13,12
"37","sub-control037","block3",1,2,700,4,18,6,13
"37","sub-control037","block3",1,2,510,2,19,2,6
"37","sub-control037","block3",1,2,472,3,20,7,2
"37","sub-control037","block4",3,1,2000,2,1,5,7
"37","sub-control037","block4",3,1,2000,5,2,11,5
"37","sub-control037","block4",3,1,2000,4,3,15,11
"37","sub-control037","block4",1,1,950,1,4,11,15
"37","sub-control037","block4",1,2,471,5,5,3,11
"37","sub-control037","block4",1,2,417,2,6,15,3
"37","sub-control037","block4",1,2,453,2,7,12,15
"37","sub-control037","block4",1,2,561,4,8,4,12
"37","sub-control037","block4",1,2,485,4,9,13,4
"37","sub-control037","block4",1,2,720,4,10,14,13
"37","sub-control037","block4",1,2,727,5,11,6,14
"37","sub-control037","block4",1,2,459,5,12,7,6
"37","sub-control037","block4",1,1,865,1,13,6,7
"37","sub-control037","block4",1,2,509,5,14,12,6
"37","sub-control037","block4",1,2,431,4,15,11,12
"37","sub-control037","block4",1,2,665,3,16,2,11
"37","sub-control037","block4",1,2,900,3,17,2,2
"37","sub-control037","block4",1,1,783,1,18,2,2
"37","sub-control037","block4",2,2,1068,1,19,2,2
"37","sub-control037","block4",2,1,1043,4,20,11,2
"37","sub-control037","training",3,1,2000,5,1,3,0
"37","sub-control037","training",3,1,2000,1,2,2,3
"37","sub-control037","training",3,1,2000,4,3,8,2
"37","sub-control037","training",3,1,2000,5,4,13,8
"37","sub-control037","training",3,1,2000,1,5,8,13
"37","sub-control037","training",1,2,671,4,6,3,8
"37","sub-control037","training",1,2,823,5,7,9,3
"37","sub-control037","training",1,1,994,1,8,3,9
"37","sub-control037","training",1,2,930,3,9,5,3
"37","sub-control037","training",1,2,1984,5,10,10,5
"37","sub-control037","training",2,1,1191,4,11,2,10
"37","sub-control037","training",1,2,1039,5,12,8,2
"37","sub-control037","training",1,1,1599,1,13,2,8
"37","sub-control037","training",1,2,1080,2,14,12,2
"37","sub-control037","training",1,2,1507,5,15,11,12
"37","sub-control037","training",1,2,825,2,16,14,11
"37","sub-control037","training",1,2,902,5,17,3,14
"37","sub-control037","training",1,2,855,2,18,9,3
"37","sub-control037","training",1,1,1074,1,19,3,9
"37","sub-control037","training",3,1,2000,1,20,9,3
"39","sub-control039","block1",3,1,2000,5,1,12,6
"39","sub-control039","block1",1,2,579,3,2,12,12
"39","sub-control039","block1",1,2,780,3,3,10,12
"39","sub-control039","block1",1,2,1025,2,4,13,10
"39","sub-control039","block1",1,2,970,2,5,7,13
"39","sub-control039","block1",1,1,679,1,6,13,7
"39","sub-control039","block1",1,2,792,3,7,2,13
"39","sub-control039","block1",2,1,1023,2,8,10,2
"39","sub-control039","block1",1,2,1036,4,9,13,10
"39","sub-control039","block1",2,1,1620,4,10,7,13
"39","sub-control039","block1",2,1,1144,2,11,5,7
"39","sub-control039","block1",1,1,1481,1,12,7,5
"39","sub-control039","block1",1,2,839,4,13,1,7
"39","sub-control039","block1",1,2,914,4,14,11,1
"39","sub-control039","block1",1,2,1017,5,15,8,11
"39","sub-control039","block1",1,2,1001,4,16,4,8
"39","sub-control039","block1",1,2,1132,3,17,2,4
"39","sub-control039","block1",2,1,846,5,18,8,2
"39","sub-control039","block1",1,2,1217,5,19,10,8
"39","sub-control039","block1",2,1,1008,3,20,11,10
"39","sub-control039","block2",3,1,2000,2,1,11,11
"39","sub-control039","block2",1,2,535,1,2,5,11
"39","sub-control039","block2",1,2,1097,2,3,2,5
"39","sub-control039","block2",1,2,1843,4,4,11,2
"39","sub-control039","block2",1,1,1054,1,5,2,11
"39","sub-control039","block2",1,1,1067,1,6,11,2
"39","sub-control039","block2",1,2,911,3,7,1,11
"39","sub-control039","block2",2,1,1447,4,8,5,1
"39","sub-control039","block2",1,2,693,5,9,7,5
"39","sub-control039","block2",1,1,1343,1,10,5,7
"39","sub-control039","block2",1,2,1269,5,11,2,5
"39","sub-control039","block2",1,1,1055,1,12,5,2
"39","sub-control039","block2",1,2,1081,4,13,14,5
"39","sub-control039","block2",1,2,1255,4,14,15,14
"39","sub-control039","block2",1,2,1225,2,15,7,15
"39","sub-control039","block2",1,2,1307,2,16,6,7
"39","sub-control039","block2",2,1,1100,3,17,10,6
"39","sub-control039","block2",1,2,1820,5,18,15,10
"39","sub-control039","block2",1,1,1134,1,19,10,15
"39","sub-control039","block2",2,2,1337,1,20,15,10
"39","sub-control039","block3",3,1,2000,5,1,13,15
"39","sub-control039","block3",1,2,816,3,2,2,13
"39","sub-control039","block3",1,2,1077,3,3,9,2
"39","sub-control039","block3",1,1,775,1,4,2,9
"39","sub-control039","block3",1,2,1206,2,5,2,2
"39","sub-control039","block3",1,2,1644,3,6,1,2
"39","sub-control039","block3",1,1,1157,1,7,2,1
"39","sub-control039","block3",1,2,1255,5,8,12,2
"39","sub-control039","block3",1,2,873,4,9,11,12
"39","sub-control039","block3",1,1,1399,1,10,12,11
"39","sub-control039","block3",1,2,1401,4,11,14,12
"39","sub-control039","block3",1,2,1358,5,12,5,14
"39","sub-control039","block3",1,1,836,1,13,14,5
"39","sub-control039","block3",1,2,1004,4,14,15,14
"39","sub-control039","block3",1,1,922,1,15,14,15
"39","sub-control039","block3",1,2,1068,5,16,8,14
"39","sub-control039","block3",1,2,1668,3,17,7,8
"39","sub-control039","block3",1,1,688,1,18,8,7
"39","sub-control039","block3",1,2,1280,5,19,15,8
"39","sub-control039","block3",2,2,1271,1,20,8,15
"39","sub-control039","block4",3,1,2000,5,1,7,8
"39","sub-control039","block4",1,2,904,2,2,6,7
"39","sub-control039","block4",1,2,1201,3,3,5,6
"39","sub-control039","block4",1,2,1501,2,4,15,5
"39","sub-control039","block4",1,2,1290,2,5,4,15
"39","sub-control039","block4",1,1,840,1,6,15,4
"39","sub-control039","block4",2,2,1813,1,7,4,15
"39","sub-control039","block4",2,1,1597,2,8,5,4
"39","sub-control039","block4",3,1,2000,3,9,9,5
"39","sub-control039","block4",1,1,886,1,10,5,9
"39","sub-control039","block4",1,2,1209,3,11,3,5
"39","sub-control039","block4",1,1,897,1,12,5,3
"39","sub-control039","block4",1,2,1139,3,13,11,5
"39","sub-control039","block4",1,2,976,5,14,4,11
"39","sub-control039","block4",1,2,1764,4,15,14,4
"39","sub-control039","block4",1,2,1426,3,16,2,14
"39","sub-control039","block4",2,1,1061,5,17,11,2
"39","sub-control039","block4",1,2,907,5,18,8,11
"39","sub-control039","block4",1,2,1484,5,19,6,8
"39","sub-control039","block4",2,1,1464,3,20,10,6
"39","sub-control039","training",3,1,2000,5,1,8,0
"39","sub-control039","training",3,1,2000,5,2,12,8
"39","sub-control039","training",1,2,1330,4,3,11,12
"39","sub-control039","training",1,2,1130,3,4,1,11
"39","sub-control039","training",1,2,866,3,5,2,1
"39","sub-control039","training",1,2,909,5,6,4,2
"39","sub-control039","training",1,1,1039,1,7,2,4
"39","sub-control039","training",3,1,2000,4,8,8,2
"39","sub-control039","training",1,2,1461,3,9,1,8
"39","sub-control039","training",2,1,1144,4,10,10,1
"39","sub-control039","training",2,2,970,1,11,1,10
"39","sub-control039","training",1,2,1736,5,12,14,1
"39","sub-control039","training",1,2,1466,3,13,2,14
"39","sub-control039","training",1,2,1417,3,14,2,2
"39","sub-control039","training",1,2,1707,5,15,9,2
"39","sub-control039","training",1,1,1206,1,16,2,9
"39","sub-control039","training",2,2,1544,1,17,9,2
"39","sub-control039","training",3,1,2000,5,18,6,9
"39","sub-control039","training",1,1,1344,1,19,9,6
"39","sub-control039","training",2,2,998,1,20,6,9
"41","sub-control041","block1",1,2,1551,2,1,13,2
"41","sub-control041","block1",1,2,851,3,2,4,13
"41","sub-control041","block1",1,2,788,5,3,4,4
"41","sub-control041","block1",1,1,691,1,4,4,4
"41","sub-control041","block1",2,2,1259,1,5,4,4
"41","sub-control041","block1",1,2,821,4,6,5,4
"41","sub-control041","block1",1,2,651,4,7,15,5
"41","sub-control041","block1",1,2,753,2,8,10,15
"41","sub-control041","block1",1,2,895,4,9,8,10
"41","sub-control041","block1",1,1,738,1,10,10,8
"41","sub-control041","block1",2,1,900,5,11,15,10
"41","sub-control041","block1",1,2,555,5,12,2,15
"41","sub-control041","block1",1,2,463,3,13,11,2
"41","sub-control041","block1",1,1,734,1,14,2,11
"41","sub-control041","block1",1,2,694,5,15,14,2
"41","sub-control041","block1",1,1,748,1,16,2,14
"41","sub-control041","block1",1,2,608,5,17,15,2
"41","sub-control041","block1",1,2,941,4,18,4,15
"41","sub-control041","block1",2,2,928,1,19,15,4
"41","sub-control041","block1",1,2,728,3,20,11,15
"41","sub-control041","block2",1,2,980,5,1,5,11
"41","sub-control041","block2",1,2,836,3,2,14,5
"41","sub-control041","block2",1,2,943,5,3,2,14
"41","sub-control041","block2",2,2,1157,1,4,14,2
"41","sub-control041","block2",1,2,1297,2,5,13,14
"41","sub-control041","block2",1,2,805,4,6,9,13
"41","sub-control041","block2",1,1,512,1,7,13,9
"41","sub-control041","block2",1,1,803,1,8,9,13
"41","sub-control041","block2",1,2,697,4,9,8,9
"41","sub-control041","block2",1,2,806,3,10,10,8
